"acc","accuracy","average_response_time","avg_rt","background","bidi","block","btwC","canvas_backend","clock_backend","colD","colL","colR","colU","color","color_backend","compensation","coordinates","correct","correct_answerins","correct_button_get_response_bef","correct_button_get_response_pos","correct_button_get_start_click","correct_get_response_bef","correct_get_response_pos","correct_get_start_click","correct_instructions","correct_resp","correctkey","count_answerins","count_break1","count_break3","count_correct_f","count_experiment","count_feedback","count_fixation500s","count_get_response_bef","count_get_response_pos","count_get_start_click","count_incorrect_f","count_instructions","count_iti1000","count_logger","count_present_stimulus","count_present_stimulus2","count_start_gogo","count_start_gogo_1","count_start_gogo_1_1","count_start_gogo_1_2","count_start_screen","count_stimuli1","count_stimuli2","count_stimuli3","count_stimuli4","count_stimuli5","count_stimuli6","count_stimuli_prac","count_trial","datetime","description","disable_garbage_collection","experiment_file","experiment_path","font_bold","font_family","font_italic","font_size","font_underline","foreground","form_clicks","fullscreen","height","initiation_time","initiation_time_get_response_bef","initiation_time_get_response_pos","initiation_time_get_start_click","keyboard_backend","live_row","live_row_stimuli_prac","loc","logfile","mouse_backend","n0","n1","n2","opensesame_codename","opensesame_version","repeat_cycle","response","response_answerins","response_feedback","response_get_response_bef","response_get_response_pos","response_get_start_click","response_instructions","response_start_gogo","response_start_gogo_1","response_start_gogo_1_1","response_start_gogo_1_2","response_time","response_time_answerins","response_time_feedback","response_time_get_response_bef","response_time_get_response_pos","response_time_get_start_click","response_time_instructions","response_time_start_gogo","response_time_start_gogo_1","response_time_start_gogo_1_1","response_time_start_gogo_1_2","round_decimals","sampler_backend","sound_buf_size","sound_channels","sound_freq","sound_sample_size","start","subject_nr","subject_parity","synth_backend","tar1L","tar2R","tar3U","tar4D","taskType","time_answerins","time_break1","time_break3","time_correct_f","time_experiment","time_feedback","time_fixation500s","time_get_response_bef","time_get_response_pos","time_get_start_click","time_incorrect_f","time_instructions","time_iti1000","time_logger","time_present_stimulus","time_present_stimulus2","time_start_gogo","time_start_gogo_1","time_start_gogo_1_1","time_start_gogo_1_2","time_start_screen","time_stimuli1","time_stimuli2","time_stimuli3","time_stimuli4","time_stimuli5","time_stimuli6","time_stimuli_prac","time_trial","timestamps_get_response_bef","timestamps_get_response_pos","title","total_correct","total_response_time","total_responses","uniform_coordinates","width","withC","xpos_get_response_bef","xpos_get_response_pos","ypos_get_response_bef","ypos_get_response_pos"
"undefined","undefined","undefined","undefined","black","no","prac","0","legacy","legacy","w.png","w.png","r.png","w.png","1","legacy","0","relative","undefined","undefined","NA","NA","NA","NA","NA","undefined","undefined","red","1","0","3","0","0","0","NA","0","0","0","0","0","0","0","0","0","0","0","4","NA","NA","0","0","0","0","0","0","0","0","0","10/09/20 17:02:43","Default description","yes","simont_HV.osexp","C:\Users\admin\Desktop\임채은\!MouseTracking_final","no","sans","no","18","no","black","no","yes","768","0","NA","NA","0","legacy","0","0","2","C:/Users/admin/Desktop/임채은/!MouseTracking_final/subject-4.csv","legacy","2","0","0","Kafkaesque Koffka","3.2.6","0","None","space","NA","NA","NA","None","space","NA","NA","NA","NA","1500","74511","NA","NA","NA","1500","63108","NA","NA","NA","NA","2","legacy","1024","2","48000","-16","experiment","4","even","legacy","red","green","blue","yellow","1","64587","NA","NA","NA","1475","NA","NA","NA","NA","139164","140664","1478","140809","141809","NA","NA","NA","NA","NA","NA","139164","NA","NA","NA","NA","NA","NA","139098","139163","NA","NA","example_experiment","0","0","0","yes","768","0","NA","NA","NA","NA"
"100","100","960","960","black","no","prac","0","legacy","legacy","w.png","w.png","w.png","b.png","1","legacy","0","relative","1","undefined","NA","blue","NA","undefined","1","undefined","undefined","blue","3","0","3","0","1","0","NA","1","1","1","1","1","0","1","1","1","1","0","4","NA","NA","1","0","0","0","0","0","0","0","1","10/09/20 17:02:43","Default description","yes","simont_HV.osexp","C:\Users\admin\Desktop\임채은\!MouseTracking_final","no","sans","no","18","no","black","no","yes","768","320","None","320","100","legacy","1","1","1","C:/Users/admin/Desktop/임채은/!MouseTracking_final/subject-4.csv","legacy","1","2","0","Kafkaesque Koffka","3.2.6","0","blue","space","NA","None","blue","start","space","NA","NA","NA","NA","960","74511","NA","250","960","842","63108","NA","NA","NA","NA","2","legacy","1024","2","48000","-16","experiment","4","even","legacy","red","green","blue","yellow","2","64587","NA","NA","144514","1475","NA","142798","143302","143554","141954","140664","1478","144519","145519","143302","143554","NA","NA","NA","NA","141954","NA","NA","NA","NA","NA","NA","139098","141952","[143303.0, 143313.0, 143323.0, 143333.0, 143343.0, 143353.0, 143363.0, 143373.0, 143383.0, 143393.0, 143403.0, 143413.0, 143423.0, 143433.0, 143443.0, 143453.0, 143463.0, 143473.0, 143483.0, 143493.0, 143503.0, 143513.0, 143523.0, 143533.0, 143543.0, 143553.0]","[143554.0, 143564.0, 143574.0, 143584.0, 143594.0, 143604.0, 143614.0, 143624.0, 143634.0, 143644.0, 143654.0, 143664.0, 143674.0, 143684.0, 143694.0, 143704.0, 143714.0, 143724.0, 143734.0, 143744.0, 143754.0, 143764.0, 143774.0, 143784.0, 143794.0, 143804.0, 143814.0, 143824.0, 143834.0, 143844.0, 143854.0, 143864.0, 143874.0, 143884.0, 143894.0, 143904.0, 143914.0, 143924.0, 143934.0, 143944.0, 143954.0, 143964.0, 143974.0, 143984.0, 143994.0, 144004.0, 144014.0, 144024.0, 144034.0, 144044.0, 144054.0, 144064.0, 144074.0, 144084.0, 144094.0, 144104.0, 144114.0, 144124.0, 144134.0, 144144.0, 144154.0, 144164.0, 144174.0, 144184.0, 144194.0, 144204.0, 144214.0, 144224.0, 144234.0, 144244.0, 144254.0, 144264.0, 144274.0, 144284.0, 144294.0, 144304.0, 144314.0, 144324.0, 144334.0, 144344.0, 144354.0, 144364.0, 144374.0, 144384.0, 144394.0, 144404.0, 144414.0, 144424.0, 144434.0, 144444.0, 144454.0, 144464.0, 144474.0, 144484.0, 144494.0, 144504.0, 144514.0, 144514]","example_experiment","1","960","1","yes","768","0","[0, 0, 0, 0, 0, 0, 0, 0, 0, 0, 0, 0, 0, 0, 0, 0, 0, 0, 0, 0, 0, 0, 0, 0, 0, 0]","[0, 0, 0, 0, 0, 0, 0, 0, 0, 0, 0, 0, 0, 0, 0, 0, 0, 0, 0, 0, 0, 0, 0, 0, 0, 0, 0, 0, 0, 0, 0, 0, 0, 2, 4, 5, 5, 5, 5, 5, 5, 5, 5, 5, 5, 5, 4, 3, 3, 3, 3, 3, 3, 2, 1, 1, -1, -2, -2, -4, -4, -5, -5, -5, -5, -5, -5, -6, -6, -6, -6, -6, -5, -5, -4, -4, -4, -4, -3, -3, -2, -2, -1, 1, 2, 3, 4, 5, 7, 8, 9, 12, 14, 15, 15, 15, 15, 15]","[0, 0, 0, 0, 0, 0, 0, 0, 0, 0, 0, 0, 0, 0, 0, 0, 0, 0, 0, 0, 0, 0, 0, 0, 0, 0]","[0, 0, 0, 0, 0, 0, 0, 0, 0, 0, 0, 0, 0, 0, 0, 0, 0, 0, 0, 0, 0, 0, 0, 0, 0, 0, 0, 0, 0, 0, 0, 0, 0, -1, -3, -5, -8, -15, -27, -42, -56, -66, -78, -89, -100, -113, -121, -129, -136, -142, -148, -154, -160, -165, -168, -170, -173, -176, -177, -180, -184, -188, -193, -198, -203, -208, -214, -219, -223, -228, -232, -235, -239, -243, -247, -252, -256, -259, -263, -265, -267, -269, -271, -272, -274, -277, -278, -280, -282, -284, -287, -291, -295, -300, -304, -309, -311, -311]"
"100","100","960","960","black","no","prac","2","legacy","legacy","w.png","g.png","w.png","w.png","2","legacy","0","relative","undefined","undefined","NA","blue","NA","undefined","1","undefined","undefined","green","2","0","3","0","2","0","NA","2","2","2","2","2","0","2","2","2","2","0","4","NA","NA","2","0","0","0","0","0","0","0","2","10/09/20 17:02:43","Default description","yes","simont_HV.osexp","C:\Users\admin\Desktop\임채은\!MouseTracking_final","no","sans","no","18","no","black","no","yes","768","50","None","320","50","legacy","2","2","1","C:/Users/admin/Desktop/임채은/!MouseTracking_final/subject-4.csv","legacy","2","1","2","Kafkaesque Koffka","3.2.6","0","None","space","NA","None","blue","None","space","NA","NA","NA","NA","1500","74511","NA","250","960","1500","63108","NA","NA","NA","NA","2","legacy","1024","2","48000","-16","experiment","4","even","legacy","red","green","blue","yellow","1","64587","NA","NA","144514","1475","NA","142798","143302","143554","145642","147142","1478","147289","148289","143302","143554","NA","NA","NA","NA","145642","NA","NA","NA","NA","NA","NA","139098","145640","[143303.0, 143313.0, 143323.0, 143333.0, 143343.0, 143353.0, 143363.0, 143373.0, 143383.0, 143393.0, 143403.0, 143413.0, 143423.0, 143433.0, 143443.0, 143453.0, 143463.0, 143473.0, 143483.0, 143493.0, 143503.0, 143513.0, 143523.0, 143533.0, 143543.0, 143553.0]","[143554.0, 143564.0, 143574.0, 143584.0, 143594.0, 143604.0, 143614.0, 143624.0, 143634.0, 143644.0, 143654.0, 143664.0, 143674.0, 143684.0, 143694.0, 143704.0, 143714.0, 143724.0, 143734.0, 143744.0, 143754.0, 143764.0, 143774.0, 143784.0, 143794.0, 143804.0, 143814.0, 143824.0, 143834.0, 143844.0, 143854.0, 143864.0, 143874.0, 143884.0, 143894.0, 143904.0, 143914.0, 143924.0, 143934.0, 143944.0, 143954.0, 143964.0, 143974.0, 143984.0, 143994.0, 144004.0, 144014.0, 144024.0, 144034.0, 144044.0, 144054.0, 144064.0, 144074.0, 144084.0, 144094.0, 144104.0, 144114.0, 144124.0, 144134.0, 144144.0, 144154.0, 144164.0, 144174.0, 144184.0, 144194.0, 144204.0, 144214.0, 144224.0, 144234.0, 144244.0, 144254.0, 144264.0, 144274.0, 144284.0, 144294.0, 144304.0, 144314.0, 144324.0, 144334.0, 144344.0, 144354.0, 144364.0, 144374.0, 144384.0, 144394.0, 144404.0, 144414.0, 144424.0, 144434.0, 144444.0, 144454.0, 144464.0, 144474.0, 144484.0, 144494.0, 144504.0, 144514.0, 144514]","example_experiment","1","960","1","yes","768","4","[0, 0, 0, 0, 0, 0, 0, 0, 0, 0, 0, 0, 0, 0, 0, 0, 0, 0, 0, 0, 0, 0, 0, 0, 0, 0]","[0, 0, 0, 0, 0, 0, 0, 0, 0, 0, 0, 0, 0, 0, 0, 0, 0, 0, 0, 0, 0, 0, 0, 0, 0, 0, 0, 0, 0, 0, 0, 0, 0, 2, 4, 5, 5, 5, 5, 5, 5, 5, 5, 5, 5, 5, 4, 3, 3, 3, 3, 3, 3, 2, 1, 1, -1, -2, -2, -4, -4, -5, -5, -5, -5, -5, -5, -6, -6, -6, -6, -6, -5, -5, -4, -4, -4, -4, -3, -3, -2, -2, -1, 1, 2, 3, 4, 5, 7, 8, 9, 12, 14, 15, 15, 15, 15, 15]","[0, 0, 0, 0, 0, 0, 0, 0, 0, 0, 0, 0, 0, 0, 0, 0, 0, 0, 0, 0, 0, 0, 0, 0, 0, 0]","[0, 0, 0, 0, 0, 0, 0, 0, 0, 0, 0, 0, 0, 0, 0, 0, 0, 0, 0, 0, 0, 0, 0, 0, 0, 0, 0, 0, 0, 0, 0, 0, 0, -1, -3, -5, -8, -15, -27, -42, -56, -66, -78, -89, -100, -113, -121, -129, -136, -142, -148, -154, -160, -165, -168, -170, -173, -176, -177, -180, -184, -188, -193, -198, -203, -208, -214, -219, -223, -228, -232, -235, -239, -243, -247, -252, -256, -259, -263, -265, -267, -269, -271, -272, -274, -277, -278, -280, -282, -284, -287, -291, -295, -300, -304, -309, -311, -311]"
"100","100","765.5","765.5","black","no","prac","3","legacy","legacy","w.png","w.png","w.png","b.png","1","legacy","0","relative","1","undefined","NA","blue","NA","undefined","1","undefined","undefined","blue","3","0","3","0","3","0","NA","3","3","3","3","3","0","3","3","3","3","0","4","NA","NA","3","0","0","0","0","0","0","0","3","10/09/20 17:02:43","Default description","yes","simont_HV.osexp","C:\Users\admin\Desktop\임채은\!MouseTracking_final","no","sans","no","18","no","black","no","yes","768","130","None","130","None","legacy","3","3","1","C:/Users/admin/Desktop/임채은/!MouseTracking_final/subject-4.csv","legacy","1","2","1","Kafkaesque Koffka","3.2.6","0","blue","space","NA","None","blue","start","space","NA","NA","NA","NA","571","74511","NA","250","571","463","63108","NA","NA","NA","NA","2","legacy","1024","2","48000","-16","experiment","4","even","legacy","red","green","blue","yellow","2","64587","NA","NA","150194","1475","NA","148867","149371","149623","148402","147142","1478","150199","151199","149371","149623","NA","NA","NA","NA","148402","NA","NA","NA","NA","NA","NA","139098","148401","[149372.0, 149382.0, 149392.0, 149402.0, 149412.0, 149422.0, 149432.0, 149442.0, 149452.0, 149462.0, 149472.0, 149482.0, 149492.0, 149502.0, 149512.0, 149522.0, 149532.0, 149542.0, 149552.0, 149562.0, 149572.0, 149582.0, 149592.0, 149602.0, 149612.0, 149622.0]","[149623.0, 149633.0, 149643.0, 149653.0, 149663.0, 149673.0, 149683.0, 149693.0, 149703.0, 149713.0, 149723.0, 149733.0, 149743.0, 149753.0, 149763.0, 149773.0, 149783.0, 149793.0, 149803.0, 149813.0, 149823.0, 149833.0, 149843.0, 149853.0, 149863.0, 149873.0, 149883.0, 149893.0, 149903.0, 149913.0, 149923.0, 149933.0, 149943.0, 149953.0, 149963.0, 149973.0, 149983.0, 149993.0, 150003.0, 150013.0, 150023.0, 150033.0, 150043.0, 150053.0, 150063.0, 150073.0, 150083.0, 150093.0, 150103.0, 150113.0, 150123.0, 150133.0, 150143.0, 150153.0, 150163.0, 150173.0, 150183.0, 150193.0, 150194]","example_experiment","2","1531","2","yes","768","1","[0, 0, 0, 0, 0, 0, 0, 0, 0, 0, 0, 0, 0, 0, 0, 0, 0, 0, 0, 0, 0, 0, 0, 0, 0, 0]","[0, 0, 0, 0, 0, 0, 0, 0, 0, 0, 0, 0, 0, 0, 0, 0, 0, 0, -1, -2, -3, -3, -2, 2, 6, 10, 13, 16, 17, 17, 17, 17, 17, 17, 17, 17, 17, 17, 17, 17, 17, 17, 17, 17, 17, 16, 16, 15, 15, 15, 15, 15, 15, 14, 14, 14, 14, 14, 14]","[0, 0, 0, 0, 0, 0, 0, 0, 0, 0, 0, 0, 0, 0, 0, 0, 0, 0, 0, 0, 0, 0, 0, 0, 0, 0]","[0, 0, 0, 0, 0, 0, 0, 0, 0, 0, 0, 0, 0, 0, -2, -5, -11, -20, -29, -40, -54, -73, -95, -119, -148, -179, -208, -230, -247, -258, -265, -268, -269, -269, -269, -269, -268, -268, -268, -268, -268, -268, -268, -268, -268, -268, -273, -278, -284, -291, -296, -300, -303, -306, -307, -308, -308, -309, -309]"
"100","100","754.333333333","754.333333333","black","no","prac","1","legacy","legacy","w.png","w.png","g.png","w.png","2","legacy","0","relative","1","undefined","NA","green","NA","undefined","1","undefined","undefined","green","2","0","3","0","4","0","NA","4","4","4","4","4","0","4","4","4","4","0","4","NA","NA","4","0","0","0","0","0","0","0","4","10/09/20 17:02:43","Default description","yes","simont_HV.osexp","C:\Users\admin\Desktop\임채은\!MouseTracking_final","no","sans","no","18","no","black","no","yes","768","80","170","80","0","legacy","4","4","2","C:/Users/admin/Desktop/임채은/!MouseTracking_final/subject-4.csv","legacy","1","1","2","Kafkaesque Koffka","3.2.6","0","green","space","NA","None","green","start","space","NA","NA","NA","NA","732","74511","NA","250","732","338","63108","NA","NA","NA","NA","2","legacy","1024","2","48000","-16","experiment","4","even","legacy","red","green","blue","yellow","1","64587","NA","NA","153159","1475","NA","151671","152175","152427","151331","147142","1478","153179","154179","152175","152427","NA","NA","NA","NA","151331","NA","NA","NA","NA","NA","NA","139098","151330","[152176.0, 152186.0, 152196.0, 152206.0, 152216.0, 152226.0, 152236.0, 152246.0, 152256.0, 152266.0, 152276.0, 152286.0, 152296.0, 152306.0, 152316.0, 152326.0, 152336.0, 152346.0, 152356.0, 152366.0, 152376.0, 152386.0, 152396.0, 152406.0, 152416.0, 152426.0]","[152427.0, 152437.0, 152447.0, 152457.0, 152467.0, 152477.0, 152487.0, 152497.0, 152507.0, 152517.0, 152527.0, 152537.0, 152547.0, 152557.0, 152567.0, 152577.0, 152587.0, 152597.0, 152607.0, 152617.0, 152627.0, 152637.0, 152647.0, 152657.0, 152667.0, 152677.0, 152687.0, 152697.0, 152707.0, 152717.0, 152727.0, 152737.0, 152747.0, 152757.0, 152767.0, 152777.0, 152787.0, 152797.0, 152807.0, 152817.0, 152827.0, 152837.0, 152847.0, 152857.0, 152867.0, 152877.0, 152887.0, 152897.0, 152907.0, 152917.0, 152927.0, 152937.0, 152947.0, 152957.0, 152967.0, 152977.0, 152987.0, 152997.0, 153007.0, 153017.0, 153027.0, 153037.0, 153047.0, 153057.0, 153067.0, 153077.0, 153087.0, 153097.0, 153107.0, 153117.0, 153127.0, 153137.0, 153147.0, 153157.0, 153159]","example_experiment","3","2263","3","yes","768","3","[0, 0, 0, 0, 0, 0, 0, 0, 0, 0, 0, 0, 0, 0, 0, 0, 0, 0, 0, 0, 0, 0, 0, 0, 0, 0]","[0, 0, 0, 0, 0, 0, 0, 0, 0, 1, 5, 13, 23, 40, 59, 81, 102, 123, 144, 161, 175, 181, 183, 183, 181, 175, 167, 155, 144, 134, 125, 117, 104, 89, 74, 63, 60, 60, 63, 71, 90, 117, 152, 199, 245, 290, 326, 351, 362, 366, 366, 363, 356, 346, 336, 326, 319, 314, 312, 311, 311, 308, 305, 303, 300, 298, 296, 295, 294, 294, 294, 294, 294, 294, 294]","[0, 0, 0, 0, 0, 0, 0, 0, 0, 0, 0, 0, 0, 0, 0, 0, 0, 0, -2, -2, -2, -2, -2, -2, -2, -2]","[-2, -2, -2, -2, -2, -2, -2, -2, -2, -2, -3, -4, -5, -6, -9, -12, -15, -17, -18, -18, -18, -19, -19, -19, -21, -21, -22, -22, -24, -25, -27, -32, -41, -53, -65, -74, -78, -78, -78, -74, -60, -42, -19, 3, 20, 31, 37, 39, 39, 38, 36, 32, 27, 23, 19, 16, 14, 13, 13, 12, 10, 7, 3, 0, -1, -1, -2, -3, -3, -3, -4, -4, -5, -5, -5]"
"100","100","750.5","750.5","black","no","prac","1","legacy","legacy","y.png","w.png","w.png","w.png","2","legacy","0","relative","1","undefined","NA","yellow","NA","undefined","1","undefined","undefined","yellow","4","0","3","0","5","0","NA","5","5","5","5","5","0","5","5","5","5","0","4","NA","NA","5","0","0","0","0","0","0","0","5","10/09/20 17:02:43","Default description","yes","simont_HV.osexp","C:\Users\admin\Desktop\임채은\!MouseTracking_final","no","sans","no","18","no","black","no","yes","768","200","None","200","0","legacy","5","5","2","C:/Users/admin/Desktop/임채은/!MouseTracking_final/subject-4.csv","legacy","1","1","1","Kafkaesque Koffka","3.2.6","0","yellow","space","NA","None","yellow","start","space","NA","NA","NA","NA","739","74511","NA","250","739","734","63108","NA","NA","NA","NA","2","legacy","1024","2","48000","-16","experiment","4","even","legacy","red","green","blue","yellow","2","64587","NA","NA","156535","1475","NA","155040","155544","155796","154304","147142","1478","156549","157549","155544","155796","NA","NA","NA","NA","154304","NA","NA","NA","NA","NA","NA","139098","154303","[155545.0, 155555.0, 155565.0, 155575.0, 155585.0, 155595.0, 155605.0, 155615.0, 155625.0, 155635.0, 155645.0, 155655.0, 155665.0, 155675.0, 155685.0, 155695.0, 155705.0, 155715.0, 155725.0, 155735.0, 155745.0, 155755.0, 155765.0, 155775.0, 155785.0, 155795.0]","[155796.0, 155806.0, 155816.0, 155826.0, 155836.0, 155846.0, 155856.0, 155866.0, 155876.0, 155886.0, 155896.0, 155906.0, 155916.0, 155926.0, 155936.0, 155946.0, 155956.0, 155966.0, 155976.0, 155986.0, 155996.0, 156006.0, 156016.0, 156026.0, 156036.0, 156046.0, 156056.0, 156066.0, 156076.0, 156086.0, 156096.0, 156106.0, 156116.0, 156126.0, 156136.0, 156146.0, 156156.0, 156166.0, 156176.0, 156186.0, 156196.0, 156206.0, 156216.0, 156226.0, 156236.0, 156246.0, 156256.0, 156266.0, 156276.0, 156286.0, 156296.0, 156306.0, 156316.0, 156326.0, 156336.0, 156346.0, 156356.0, 156366.0, 156376.0, 156386.0, 156396.0, 156406.0, 156416.0, 156426.0, 156436.0, 156446.0, 156456.0, 156466.0, 156476.0, 156486.0, 156496.0, 156506.0, 156516.0, 156526.0, 156535]","example_experiment","4","3002","4","yes","768","1","[0, 0, 0, 0, 0, 0, 0, 0, 0, 0, 0, 0, 0, 0, 0, 0, 0, 0, 0, 0, 0, 0, 0, 0, 0, 0]","[0, 0, 0, 0, 0, 0, 0, 0, 0, 0, 0, 0, 0, 0, 0, 0, 0, 0, 0, 0, 0, 0, 0, -2, -2, -2, -4, -7, -10, -12, -13, -14, -14, -14, -14, -14, -14, -14, -14, -13, -12, -11, -8, -5, -2, 0, 2, 4, 5, 5, 5, 6, 6, 6, 4, 3, 2, 1, 0, 0, 0, 0, 0, 0, 0, 0, 0, 0, 0, 0, -1, -3, -3, -4, -5]","[0, 0, 0, 0, 0, 0, 0, 0, 0, 0, 0, 0, 0, 0, 0, 0, 0, 0, 0, 0, 0, 0, 0, 0, 0, 0]","[0, 0, 0, 0, 0, 0, 0, 0, 0, 0, 0, 0, 0, 0, 0, 0, 0, 0, 0, 0, 0, 3, 11, 24, 38, 55, 72, 88, 105, 123, 143, 160, 173, 183, 189, 192, 192, 192, 192, 192, 191, 191, 191, 192, 195, 200, 206, 211, 215, 218, 221, 225, 230, 235, 239, 245, 250, 256, 265, 273, 278, 281, 284, 287, 289, 290, 291, 292, 294, 296, 300, 302, 304, 305, 307]"
"100","100","712.4","712.4","black","no","prac","2","legacy","legacy","w.png","w.png","r.png","w.png","1","legacy","0","relative","1","undefined","NA","red","NA","undefined","1","undefined","undefined","red","1","0","3","0","6","0","NA","6","6","6","6","6","0","6","6","6","6","0","4","NA","NA","6","0","0","0","0","0","0","0","6","10/09/20 17:02:43","Default description","yes","simont_HV.osexp","C:\Users\admin\Desktop\임채은\!MouseTracking_final","no","sans","no","18","no","black","no","yes","768","130","None","130","None","legacy","6","6","2","C:/Users/admin/Desktop/임채은/!MouseTracking_final/subject-4.csv","legacy","2","1","1","Kafkaesque Koffka","3.2.6","0","red","space","NA","None","red","start","space","NA","NA","NA","NA","560","74511","NA","250","560","310","63108","NA","NA","NA","NA","2","legacy","1024","2","48000","-16","experiment","4","even","legacy","red","green","blue","yellow","1","64587","NA","NA","159290","1475","NA","157974","158478","158730","157663","147142","1478","159299","160299","158478","158730","NA","NA","NA","NA","157663","NA","NA","NA","NA","NA","NA","139098","157661","[158479.0, 158489.0, 158499.0, 158509.0, 158519.0, 158529.0, 158539.0, 158549.0, 158559.0, 158569.0, 158579.0, 158589.0, 158599.0, 158609.0, 158619.0, 158629.0, 158639.0, 158649.0, 158659.0, 158669.0, 158679.0, 158689.0, 158699.0, 158709.0, 158719.0, 158729.0]","[158730.0, 158740.0, 158750.0, 158760.0, 158770.0, 158780.0, 158790.0, 158800.0, 158810.0, 158820.0, 158830.0, 158840.0, 158850.0, 158860.0, 158870.0, 158880.0, 158890.0, 158900.0, 158910.0, 158920.0, 158930.0, 158940.0, 158950.0, 158960.0, 158970.0, 158980.0, 158990.0, 159000.0, 159010.0, 159020.0, 159030.0, 159040.0, 159050.0, 159060.0, 159070.0, 159080.0, 159090.0, 159100.0, 159110.0, 159120.0, 159130.0, 159140.0, 159150.0, 159160.0, 159170.0, 159180.0, 159190.0, 159200.0, 159210.0, 159220.0, 159230.0, 159240.0, 159250.0, 159260.0, 159270.0, 159280.0, 159290.0, 159290]","example_experiment","5","3562","5","yes","768","2","[0, 0, 0, 0, 0, 0, 0, 0, 0, 0, 0, 0, 0, 0, 0, 0, 0, 0, 0, 0, 0, 0, 0, 0, 0, 0]","[0, 0, 0, 0, 0, 0, 0, 0, 0, 0, 0, 0, 0, 0, -1, -7, -22, -45, -71, -100, -123, -143, -161, -179, -197, -214, -229, -243, -253, -262, -269, -274, -278, -279, -279, -279, -278, -275, -274, -273, -272, -272, -272, -272, -273, -277, -285, -292, -303, -310, -315, -319, -320, -320, -320, -320, -320, -320]","[0, 0, 0, 0, 0, 0, 0, 0, 0, 0, 0, 0, 0, 0, 0, 0, 0, 0, 0, 0, 0, 0, 0, 0, 0, 0]","[0, 0, 0, 0, 0, 0, 0, 0, 0, 0, 0, 0, 0, 0, 0, 0, 0, 0, 2, 5, 8, 11, 12, 13, 15, 16, 17, 18, 18, 18, 18, 18, 19, 19, 19, 19, 19, 18, 16, 15, 14, 12, 12, 11, 11, 11, 11, 11, 12, 12, 13, 13, 13, 13, 13, 13, 13, 13]"
"100","100","718.166666667","718.166666667","black","no","prac","4","legacy","legacy","w.png","w.png","w.png","y.png","2","legacy","0","relative","1","undefined","NA","yellow","NA","undefined","1","undefined","undefined","yellow","4","0","3","0","7","0","NA","7","7","7","7","7","0","7","7","7","7","0","4","NA","NA","7","0","0","0","0","0","0","0","7","10/09/20 17:02:43","Default description","yes","simont_HV.osexp","C:\Users\admin\Desktop\임채은\!MouseTracking_final","no","sans","no","18","no","black","no","yes","768","180","None","180","10","legacy","7","7","1","C:/Users/admin/Desktop/임채은/!MouseTracking_final/subject-4.csv","legacy","2","2","1","Kafkaesque Koffka","3.2.6","0","yellow","space","NA","None","yellow","start","space","NA","NA","NA","NA","747","74511","NA","250","747","288","63108","NA","NA","NA","NA","2","legacy","1024","2","48000","-16","experiment","4","even","legacy","red","green","blue","yellow","2","64587","NA","NA","162216","1475","NA","160713","161217","161469","160423","147142","1478","162229","163229","161217","161469","NA","NA","NA","NA","160423","NA","NA","NA","NA","NA","NA","139098","160421","[161218.0, 161228.0, 161238.0, 161248.0, 161258.0, 161268.0, 161278.0, 161288.0, 161298.0, 161308.0, 161318.0, 161328.0, 161338.0, 161348.0, 161358.0, 161368.0, 161378.0, 161388.0, 161398.0, 161408.0, 161418.0, 161428.0, 161438.0, 161448.0, 161458.0, 161468.0]","[161469.0, 161479.0, 161489.0, 161499.0, 161509.0, 161519.0, 161529.0, 161539.0, 161549.0, 161559.0, 161569.0, 161579.0, 161589.0, 161599.0, 161609.0, 161619.0, 161629.0, 161639.0, 161649.0, 161659.0, 161669.0, 161679.0, 161689.0, 161699.0, 161709.0, 161719.0, 161729.0, 161739.0, 161749.0, 161759.0, 161769.0, 161779.0, 161789.0, 161799.0, 161809.0, 161819.0, 161829.0, 161839.0, 161849.0, 161859.0, 161869.0, 161879.0, 161889.0, 161899.0, 161909.0, 161919.0, 161929.0, 161939.0, 161949.0, 161959.0, 161969.0, 161979.0, 161989.0, 161999.0, 162009.0, 162019.0, 162029.0, 162039.0, 162049.0, 162059.0, 162069.0, 162079.0, 162089.0, 162099.0, 162109.0, 162119.0, 162129.0, 162139.0, 162149.0, 162159.0, 162169.0, 162179.0, 162189.0, 162199.0, 162209.0, 162216]","example_experiment","6","4309","6","yes","768","2","[0, 0, 0, 0, 0, 0, 0, 0, 0, 0, 0, 0, 0, 0, 0, 0, 0, 0, 0, 0, 0, 0, 0, 0, 0, 0]","[0, 0, 0, 0, 0, 0, 0, 0, 0, 0, 0, 0, 0, 0, 0, 0, 0, 0, 0, 0, 0, 1, 1, 1, 2, 3, 3, 3, 3, 3, 2, 2, 2, 2, 2, 2, 1, 0, -3, -5, -7, -10, -13, -15, -18, -19, -19, -19, -19, -18, -17, -15, -14, -13, -12, -11, -10, -8, -7, -5, -5, -5, -4, -4, -3, -3, -3, -2, 0, 0, 1, 2, 3, 3, 4, 4]","[0, 0, 0, 0, 0, 0, 0, 0, 0, 0, 0, 0, 0, 0, 0, 0, 0, 0, 0, 0, 0, 0, 0, 0, 0, 0]","[0, 0, 0, 0, 0, 0, 0, 0, 0, 0, 0, 0, 0, 0, 0, 0, 0, 0, 0, -1, -5, -8, -9, -10, -10, -9, -4, 4, 13, 24, 37, 53, 68, 87, 107, 126, 141, 156, 167, 180, 192, 203, 213, 222, 229, 236, 242, 246, 249, 252, 254, 255, 256, 256, 256, 257, 257, 259, 261, 263, 265, 267, 269, 271, 275, 280, 287, 292, 299, 306, 311, 313, 314, 315, 315, 315]"
"100","100","687.285714286","687.285714286","black","no","prac","3","legacy","legacy","w.png","r.png","w.png","w.png","1","legacy","0","relative","1","undefined","NA","red","NA","undefined","1","undefined","undefined","red","1","0","3","0","8","0","NA","8","8","8","8","8","0","8","8","8","8","0","4","NA","NA","8","0","0","0","0","0","0","0","8","10/09/20 17:02:43","Default description","yes","simont_HV.osexp","C:\Users\admin\Desktop\임채은\!MouseTracking_final","no","sans","no","18","no","black","no","yes","768","40","None","40","None","legacy","8","8","1","C:/Users/admin/Desktop/임채은/!MouseTracking_final/subject-4.csv","legacy","1","2","2","Kafkaesque Koffka","3.2.6","0","red","space","NA","None","red","start","space","NA","NA","NA","NA","502","74511","NA","250","502","232","63108","NA","NA","NA","NA","2","legacy","1024","2","48000","-16","experiment","4","even","legacy","red","green","blue","yellow","1","64587","NA","NA","164832","1475","NA","163574","164078","164330","163340","147142","1478","164849","165849","164078","164330","NA","NA","NA","NA","163340","NA","NA","NA","NA","NA","NA","139098","163338","[164079.0, 164089.0, 164099.0, 164109.0, 164119.0, 164129.0, 164139.0, 164149.0, 164159.0, 164169.0, 164179.0, 164189.0, 164199.0, 164209.0, 164219.0, 164229.0, 164239.0, 164249.0, 164259.0, 164269.0, 164279.0, 164289.0, 164299.0, 164309.0, 164319.0, 164329.0]","[164330.0, 164340.0, 164350.0, 164360.0, 164370.0, 164380.0, 164390.0, 164400.0, 164410.0, 164420.0, 164430.0, 164440.0, 164450.0, 164460.0, 164470.0, 164480.0, 164490.0, 164500.0, 164510.0, 164520.0, 164530.0, 164540.0, 164550.0, 164560.0, 164570.0, 164580.0, 164590.0, 164600.0, 164610.0, 164620.0, 164630.0, 164640.0, 164650.0, 164660.0, 164670.0, 164680.0, 164690.0, 164700.0, 164710.0, 164720.0, 164730.0, 164740.0, 164750.0, 164760.0, 164770.0, 164780.0, 164790.0, 164800.0, 164810.0, 164820.0, 164830.0, 164832]","example_experiment","7","4811","7","yes","768","3","[0, 0, 0, 0, 0, 0, 0, 0, 0, 0, 0, 0, 0, 0, 0, 0, 0, 0, 0, 0, 0, 0, 0, 0, 0, 0]","[0, 0, 0, 0, 0, -4, -10, -17, -24, -31, -39, -53, -69, -91, -116, -137, -158, -177, -205, -230, -255, -275, -285, -290, -292, -292, -290, -286, -279, -271, -266, -264, -264, -264, -264, -265, -269, -272, -274, -275, -276, -279, -284, -290, -297, -301, -305, -307, -308, -308, -308, -308]","[0, 0, 0, 0, 0, 0, 0, 0, 0, 0, 0, 0, 0, 0, 0, 0, 0, 0, 0, 0, 0, 0, 0, 0, 0, 0]","[0, 0, 0, 0, 0, 1, 4, 6, 8, 10, 11, 13, 13, 13, 13, 13, 13, 12, 10, 8, 8, 8, 9, 10, 12, 12, 13, 15, 16, 17, 18, 18, 18, 18, 18, 18, 18, 18, 18, 18, 18, 17, 16, 14, 13, 13, 13, 13, 13, 13, 13, 13]"
"100","100","679.625","679.625","black","no","prac","1","legacy","legacy","y.png","w.png","w.png","w.png","2","legacy","0","relative","1","undefined","NA","yellow","NA","undefined","1","undefined","undefined","yellow","4","0","3","0","9","0","NA","9","9","9","9","9","0","9","9","9","9","0","4","NA","NA","9","0","0","0","0","0","0","0","9","10/09/20 17:02:43","Default description","yes","simont_HV.osexp","C:\Users\admin\Desktop\임채은\!MouseTracking_final","no","sans","no","18","no","black","no","yes","768","70","None","70","None","legacy","9","9","2","C:/Users/admin/Desktop/임채은/!MouseTracking_final/subject-4.csv","legacy","1","1","2","Kafkaesque Koffka","3.2.6","0","yellow","space","NA","None","yellow","start","space","NA","NA","NA","NA","626","74511","NA","250","626","487","63108","NA","NA","NA","NA","2","legacy","1024","2","48000","-16","experiment","4","even","legacy","red","green","blue","yellow","2","64587","NA","NA","167821","1475","NA","166440","166943","167195","165952","147142","1478","167839","168839","166943","167195","NA","NA","NA","NA","165952","NA","NA","NA","NA","NA","NA","139098","165951","[166944.0, 166954.0, 166964.0, 166974.0, 166984.0, 166994.0, 167004.0, 167014.0, 167024.0, 167034.0, 167044.0, 167054.0, 167064.0, 167074.0, 167084.0, 167094.0, 167104.0, 167114.0, 167124.0, 167134.0, 167144.0, 167154.0, 167164.0, 167174.0, 167184.0, 167194.0]","[167195.0, 167205.0, 167215.0, 167225.0, 167235.0, 167245.0, 167255.0, 167265.0, 167275.0, 167285.0, 167295.0, 167305.0, 167315.0, 167325.0, 167335.0, 167345.0, 167355.0, 167365.0, 167375.0, 167385.0, 167395.0, 167405.0, 167415.0, 167425.0, 167435.0, 167445.0, 167455.0, 167465.0, 167475.0, 167485.0, 167495.0, 167505.0, 167515.0, 167525.0, 167535.0, 167545.0, 167555.0, 167565.0, 167575.0, 167585.0, 167595.0, 167605.0, 167615.0, 167625.0, 167635.0, 167645.0, 167655.0, 167665.0, 167675.0, 167685.0, 167695.0, 167705.0, 167715.0, 167725.0, 167735.0, 167745.0, 167755.0, 167765.0, 167775.0, 167785.0, 167795.0, 167805.0, 167815.0, 167821]","example_experiment","8","5437","8","yes","768","3","[0, 0, 0, 0, 0, 0, 0, 0, 0, 0, 0, 0, 0, 0, 0, 0, 0, 0, 0, 0, 0, 0, 0, 0, 0, 0]","[0, 0, 0, 0, 0, 0, 0, 0, -1, -3, -4, -4, -5, -6, -9, -13, -18, -25, -30, -35, -36, -37, -37, -37, -38, -39, -40, -40, -39, -39, -36, -32, -28, -24, -21, -19, -19, -21, -23, -24, -27, -30, -33, -34, -34, -34, -33, -32, -32, -31, -30, -29, -28, -27, -25, -24, -22, -20, -17, -14, -10, -9, -9, -9]","[0, 0, 0, 0, 0, 0, 0, 0, 0, 0, 0, 0, 0, 0, 0, 0, 0, 0, 0, 0, 0, 0, 0, 0, 0, 0]","[0, 0, 0, 0, 0, 0, 0, 0, 4, 9, 19, 32, 47, 69, 93, 120, 149, 173, 190, 204, 210, 212, 212, 209, 201, 190, 181, 177, 176, 176, 179, 186, 196, 207, 218, 227, 238, 255, 273, 289, 307, 324, 338, 345, 350, 352, 352, 352, 348, 343, 338, 334, 331, 329, 327, 325, 324, 321, 318, 315, 313, 311, 311, 311]"
"100","100","665.111111111","665.111111111","black","no","prac","1","legacy","legacy","w.png","w.png","g.png","w.png","2","legacy","0","relative","1","undefined","NA","green","NA","undefined","1","undefined","undefined","green","2","0","3","0","10","0","NA","10","10","10","10","10","0","10","10","10","10","0","4","NA","NA","10","0","0","0","0","0","0","0","10","10/09/20 17:02:43","Default description","yes","simont_HV.osexp","C:\Users\admin\Desktop\임채은\!MouseTracking_final","no","sans","no","18","no","black","no","yes","768","80","None","80","None","legacy","10","10","2","C:/Users/admin/Desktop/임채은/!MouseTracking_final/subject-4.csv","legacy","1","1","1","Kafkaesque Koffka","3.2.6","0","green","space","NA","None","green","start","space","NA","NA","NA","NA","549","74511","NA","250","549","633","63108","NA","NA","NA","NA","2","legacy","1024","2","48000","-16","experiment","4","even","legacy","red","green","blue","yellow","1","64587","NA","NA","170892","1475","NA","169587","170091","170343","168952","147142","1478","170909","171909","170091","170343","NA","NA","NA","NA","168952","NA","NA","NA","NA","NA","NA","139098","168950","[170092.0, 170102.0, 170112.0, 170122.0, 170132.0, 170142.0, 170152.0, 170162.0, 170172.0, 170182.0, 170192.0, 170202.0, 170212.0, 170222.0, 170232.0, 170242.0, 170252.0, 170262.0, 170272.0, 170282.0, 170292.0, 170302.0, 170312.0, 170322.0, 170332.0, 170342.0]","[170343.0, 170353.0, 170363.0, 170373.0, 170383.0, 170393.0, 170403.0, 170413.0, 170423.0, 170433.0, 170443.0, 170453.0, 170463.0, 170473.0, 170483.0, 170493.0, 170503.0, 170513.0, 170523.0, 170533.0, 170543.0, 170553.0, 170563.0, 170573.0, 170583.0, 170593.0, 170603.0, 170613.0, 170623.0, 170633.0, 170643.0, 170653.0, 170663.0, 170673.0, 170683.0, 170693.0, 170703.0, 170713.0, 170723.0, 170733.0, 170743.0, 170753.0, 170763.0, 170773.0, 170783.0, 170793.0, 170803.0, 170813.0, 170823.0, 170833.0, 170843.0, 170853.0, 170863.0, 170873.0, 170883.0, 170892]","example_experiment","9","5986","9","yes","768","1","[0, 0, 0, 0, 0, 0, 0, 0, 0, 0, 0, 0, 0, 0, 0, 0, 0, 0, 0, 0, 0, 0, 0, 0, 0, 0]","[0, 0, 0, 0, 0, 0, 0, 0, 0, 3, 10, 17, 28, 45, 57, 65, 70, 73, 74, 77, 80, 86, 95, 104, 115, 127, 146, 174, 211, 248, 279, 302, 314, 318, 318, 318, 318, 316, 312, 310, 310, 310, 310, 310, 310, 313, 316, 318, 318, 318, 318, 318, 318, 318, 318, 319]","[0, 0, 0, 0, 0, 0, 0, 0, 0, 0, 0, 0, 0, 0, 0, 0, 0, 0, 0, 0, 0, 0, 0, 0, 0, 0]","[0, 0, 0, 0, 0, 0, 0, 0, 0, 0, -1, -2, -3, -3, -3, -4, -4, -4, -4, -4, -4, -3, -3, -3, -4, -6, -6, -6, -6, -6, -6, -8, -12, -15, -16, -17, -18, -19, -20, -20, -20, -20, -20, -20, -20, -20, -20, -20, -20, -20, -20, -20, -20, -20, -19, -19]"
"100","100","655.5","655.5","black","no","prac","1","legacy","legacy","w.png","w.png","w.png","b.png","1","legacy","0","relative","1","undefined","NA","blue","NA","undefined","1","undefined","undefined","blue","3","0","3","0","11","0","NA","11","11","11","11","11","0","11","11","11","11","0","4","NA","NA","11","0","0","0","0","0","0","0","11","10/09/20 17:02:43","Default description","yes","simont_HV.osexp","C:\Users\admin\Desktop\임채은\!MouseTracking_final","no","sans","no","18","no","black","no","yes","768","60","None","60","None","legacy","11","11","1","C:/Users/admin/Desktop/임채은/!MouseTracking_final/subject-4.csv","legacy","1","1","1","Kafkaesque Koffka","3.2.6","0","blue","space","NA","None","blue","start","space","NA","NA","NA","NA","569","74511","NA","250","569","395","63108","NA","NA","NA","NA","2","legacy","1024","2","48000","-16","experiment","4","even","legacy","red","green","blue","yellow","2","64587","NA","NA","173734","1475","NA","172408","172913","173165","172012","147142","1478","173749","174749","172913","173165","NA","NA","NA","NA","172012","NA","NA","NA","NA","NA","NA","139098","172011","[172914.0, 172924.0, 172934.0, 172944.0, 172954.0, 172964.0, 172974.0, 172984.0, 172994.0, 173004.0, 173014.0, 173024.0, 173034.0, 173044.0, 173054.0, 173064.0, 173074.0, 173084.0, 173094.0, 173104.0, 173114.0, 173124.0, 173134.0, 173144.0, 173154.0, 173164.0]","[173165.0, 173175.0, 173185.0, 173195.0, 173205.0, 173215.0, 173225.0, 173235.0, 173245.0, 173255.0, 173265.0, 173275.0, 173285.0, 173295.0, 173305.0, 173315.0, 173325.0, 173335.0, 173345.0, 173355.0, 173365.0, 173375.0, 173385.0, 173395.0, 173405.0, 173415.0, 173425.0, 173435.0, 173445.0, 173455.0, 173465.0, 173475.0, 173485.0, 173495.0, 173505.0, 173515.0, 173525.0, 173535.0, 173545.0, 173555.0, 173565.0, 173575.0, 173585.0, 173595.0, 173605.0, 173615.0, 173625.0, 173635.0, 173645.0, 173655.0, 173665.0, 173675.0, 173685.0, 173695.0, 173705.0, 173715.0, 173725.0, 173734]","example_experiment","10","6555","10","yes","768","1","[0, 0, 0, 0, 0, 0, 0, 0, 0, 0, 0, 0, 0, 0, 0, 0, 0, 0, 0, 0, 0, 0, 0, 0, 0, 0]","[0, 0, 0, 0, 0, 0, 0, -1, -2, -3, -4, -4, -4, -4, -4, -4, -4, -5, -7, -9, -9, -9, -9, -9, -9, -6, -5, -5, -5, -5, -4, -4, -4, -4, -6, -9, -9, -9, -7, -5, -4, -3, -2, -1, -1, -1, -1, -1, -1, -1, -1, -1, -1, -1, -1, -1, -1, -1]","[0, 0, 0, 0, 0, 0, 0, 0, 0, 0, 0, 0, 0, 0, 0, 0, 0, 0, 0, 0, 0, 0, 0, 0, 0, 0]","[0, 0, 0, 0, 0, 0, 0, 1, 1, 2, 3, 3, 3, 3, 3, 3, 3, 4, 4, 5, 5, 5, 5, 0, -7, -23, -43, -72, -103, -133, -165, -192, -213, -230, -246, -258, -269, -276, -282, -287, -290, -293, -296, -299, -302, -305, -307, -309, -310, -310, -310, -310, -310, -310, -311, -312, -312, -312]"
"100","100","645.363636364","645.363636364","black","no","prac","1","legacy","legacy","w.png","r.png","w.png","w.png","1","legacy","0","relative","1","undefined","NA","red","NA","undefined","1","undefined","undefined","red","1","0","3","0","12","0","NA","12","12","12","12","12","0","12","12","12","12","0","4","NA","NA","12","0","0","0","0","0","0","0","12","10/09/20 17:02:43","Default description","yes","simont_HV.osexp","C:\Users\admin\Desktop\임채은\!MouseTracking_final","no","sans","no","18","no","black","no","yes","768","110","None","110","None","legacy","12","12","1","C:/Users/admin/Desktop/임채은/!MouseTracking_final/subject-4.csv","legacy","1","1","1","Kafkaesque Koffka","3.2.6","0","red","space","NA","None","red","start","space","NA","NA","NA","NA","544","74511","NA","250","544","291","63108","NA","NA","NA","NA","2","legacy","1024","2","48000","-16","experiment","4","even","legacy","red","green","blue","yellow","1","64587","NA","NA","176453","1475","NA","175152","175656","175908","174860","147142","1478","176459","177459","175656","175908","NA","NA","NA","NA","174860","NA","NA","NA","NA","NA","NA","139098","174859","[175657.0, 175667.0, 175677.0, 175687.0, 175697.0, 175707.0, 175717.0, 175727.0, 175737.0, 175747.0, 175757.0, 175767.0, 175777.0, 175787.0, 175797.0, 175807.0, 175817.0, 175827.0, 175837.0, 175847.0, 175857.0, 175867.0, 175877.0, 175887.0, 175897.0, 175907.0]","[175908.0, 175918.0, 175928.0, 175938.0, 175948.0, 175958.0, 175968.0, 175978.0, 175988.0, 175998.0, 176008.0, 176018.0, 176028.0, 176038.0, 176048.0, 176058.0, 176068.0, 176078.0, 176088.0, 176098.0, 176108.0, 176118.0, 176128.0, 176138.0, 176148.0, 176158.0, 176168.0, 176178.0, 176188.0, 176198.0, 176208.0, 176218.0, 176228.0, 176238.0, 176248.0, 176258.0, 176268.0, 176278.0, 176288.0, 176298.0, 176308.0, 176318.0, 176328.0, 176338.0, 176348.0, 176358.0, 176368.0, 176378.0, 176388.0, 176398.0, 176408.0, 176418.0, 176428.0, 176438.0, 176448.0, 176452]","example_experiment","11","7099","11","yes","768","1","[0, 0, 0, 0, 0, 0, 0, 0, 0, 0, 0, 0, 0, 0, 0, 0, 0, 0, 0, 0, 0, 0, 0, 0, 0, 0]","[0, 0, 0, 0, 0, 0, 0, 0, 0, 0, 0, 0, -3, -9, -17, -28, -45, -64, -86, -107, -129, -150, -171, -191, -209, -226, -237, -245, -249, -253, -255, -255, -255, -255, -255, -255, -255, -255, -256, -259, -264, -272, -280, -288, -293, -296, -298, -300, -303, -306, -308, -309, -309, -309, -309, -309]","[0, 0, 0, 0, 0, 0, 0, 0, 0, 0, 0, 0, 0, 0, 0, 0, 0, 0, 0, 0, 0, 0, 0, 0, 0, 0]","[0, 0, 0, 0, 0, 0, 0, 0, 0, 0, 0, 0, 0, 0, 0, 0, -1, -3, -5, -7, -9, -12, -13, -13, -13, -12, -10, -9, -7, -5, -5, -4, -4, -4, -2, 1, 4, 6, 8, 9, 12, 14, 17, 18, 18, 18, 18, 18, 18, 18, 18, 18, 18, 18, 18, 18]"
"100","100","641.583333333","641.583333333","black","no","prac","2","legacy","legacy","w.png","w.png","w.png","y.png","2","legacy","0","relative","1","undefined","NA","yellow","NA","undefined","1","undefined","undefined","yellow","4","0","3","0","13","0","NA","13","13","13","13","13","0","13","13","13","13","0","4","NA","NA","13","0","0","0","0","0","0","0","13","10/09/20 17:02:43","Default description","yes","simont_HV.osexp","C:\Users\admin\Desktop\임채은\!MouseTracking_final","no","sans","no","18","no","black","no","yes","768","40","None","40","None","legacy","13","13","1","C:/Users/admin/Desktop/임채은/!MouseTracking_final/subject-4.csv","legacy","2","1","1","Kafkaesque Koffka","3.2.6","0","yellow","space","NA","None","yellow","start","space","NA","NA","NA","NA","600","74511","NA","250","600","247","63108","NA","NA","NA","NA","2","legacy","1024","2","48000","-16","experiment","4","even","legacy","red","green","blue","yellow","2","64587","NA","NA","179183","1475","NA","177826","178330","178582","177577","147142","1478","179189","180189","178330","178582","NA","NA","NA","NA","177576","NA","NA","NA","NA","NA","NA","139098","177575","[178331.0, 178341.0, 178351.0, 178361.0, 178371.0, 178381.0, 178391.0, 178401.0, 178411.0, 178421.0, 178431.0, 178441.0, 178451.0, 178461.0, 178471.0, 178481.0, 178491.0, 178501.0, 178511.0, 178521.0, 178531.0, 178541.0, 178551.0, 178561.0, 178571.0, 178581.0]","[178582.0, 178592.0, 178602.0, 178612.0, 178622.0, 178632.0, 178642.0, 178652.0, 178662.0, 178672.0, 178682.0, 178692.0, 178702.0, 178712.0, 178722.0, 178732.0, 178742.0, 178752.0, 178762.0, 178772.0, 178782.0, 178792.0, 178802.0, 178812.0, 178822.0, 178832.0, 178842.0, 178852.0, 178862.0, 178872.0, 178882.0, 178892.0, 178902.0, 178912.0, 178922.0, 178932.0, 178942.0, 178952.0, 178962.0, 178972.0, 178982.0, 178992.0, 179002.0, 179012.0, 179022.0, 179032.0, 179042.0, 179052.0, 179062.0, 179072.0, 179082.0, 179092.0, 179102.0, 179112.0, 179122.0, 179132.0, 179142.0, 179152.0, 179162.0, 179172.0, 179182.0, 179182]","example_experiment","12","7699","12","yes","768","2","[0, 0, 0, 0, 0, 0, 0, 0, 0, 0, 0, 0, 0, 0, 0, 0, 0, 0, 0, 0, 0, 0, 0, 0, 0, 0]","[0, 0, 0, 0, 0, 0, 0, -1, -1, -1, -1, -1, -1, -1, -1, -1, -1, -1, -1, -2, -2, -2, -3, -3, -4, -5, -5, -5, -5, -5, -6, -11, -18, -21, -22, -22, -21, -20, -19, -19, -15, -13, -12, -11, -11, -11, -11, -11, -11, -11, -11, -11, -10, -9, -8, -7, -6, -4, -2, -1, -1, -1]","[0, 0, 0, 0, 0, 0, 0, 0, 0, 0, 0, 0, 0, 0, 0, 0, 0, 0, 0, 0, 0, 0, 0, 0, 0, 0]","[0, 0, 0, 0, 0, -1, -3, -6, -7, -10, -12, -13, -14, -14, -14, -14, -14, -14, -14, -14, -14, -13, -12, -10, -5, 2, 11, 24, 40, 60, 82, 106, 138, 173, 209, 245, 274, 295, 307, 316, 324, 330, 333, 335, 335, 335, 335, 335, 335, 335, 335, 332, 330, 327, 325, 322, 319, 317, 315, 315, 315, 315]"
"100","100","637.230769231","637.230769231","black","no","prac","3","legacy","legacy","w.png","r.png","w.png","w.png","1","legacy","0","relative","1","undefined","NA","red","NA","undefined","1","undefined","undefined","red","1","0","3","0","14","0","NA","14","14","14","14","14","0","14","14","14","14","0","4","NA","NA","14","0","0","0","0","0","0","0","14","10/09/20 17:02:43","Default description","yes","simont_HV.osexp","C:\Users\admin\Desktop\임채은\!MouseTracking_final","no","sans","no","18","no","black","no","yes","768","20","None","20","None","legacy","14","14","1","C:/Users/admin/Desktop/임채은/!MouseTracking_final/subject-4.csv","legacy","1","2","1","Kafkaesque Koffka","3.2.6","0","red","space","NA","None","red","start","space","NA","NA","NA","NA","585","74511","NA","250","585","258","63108","NA","NA","NA","NA","2","legacy","1024","2","48000","-16","experiment","4","even","legacy","red","green","blue","yellow","1","64587","NA","NA","181920","1475","NA","180578","181082","181334","180317","147142","1478","181939","182939","181082","181334","NA","NA","NA","NA","180317","NA","NA","NA","NA","NA","NA","139098","180316","[181083.0, 181093.0, 181103.0, 181113.0, 181123.0, 181133.0, 181143.0, 181153.0, 181163.0, 181173.0, 181183.0, 181193.0, 181203.0, 181213.0, 181223.0, 181233.0, 181243.0, 181253.0, 181263.0, 181273.0, 181283.0, 181293.0, 181303.0, 181313.0, 181323.0, 181333.0]","[181334.0, 181344.0, 181354.0, 181364.0, 181374.0, 181384.0, 181394.0, 181404.0, 181414.0, 181424.0, 181434.0, 181444.0, 181454.0, 181464.0, 181474.0, 181484.0, 181494.0, 181504.0, 181514.0, 181524.0, 181534.0, 181544.0, 181554.0, 181564.0, 181574.0, 181584.0, 181594.0, 181604.0, 181614.0, 181624.0, 181634.0, 181644.0, 181654.0, 181664.0, 181674.0, 181684.0, 181694.0, 181704.0, 181714.0, 181724.0, 181734.0, 181744.0, 181754.0, 181764.0, 181774.0, 181784.0, 181794.0, 181804.0, 181814.0, 181824.0, 181834.0, 181844.0, 181854.0, 181864.0, 181874.0, 181884.0, 181894.0, 181904.0, 181914.0, 181919]","example_experiment","13","8284","13","yes","768","1","[0, 0, 0, 0, 0, 0, 0, 0, 0, 0, 0, 0, 0, 0, 0, 0, 0, 0, 0, 0, 0, 0, 0, 0, 0, 0]","[0, 0, 0, -1, -1, -1, -1, -1, -1, -1, -2, -3, -6, -12, -23, -40, -57, -77, -98, -121, -144, -168, -193, -214, -232, -246, -254, -261, -266, -271, -272, -273, -273, -273, -273, -272, -271, -270, -270, -269, -269, -269, -269, -269, -271, -275, -279, -282, -286, -291, -297, -303, -307, -308, -308, -308, -308, -308, -308, -308]","[0, 0, 0, 0, 0, 0, 0, 0, 0, 0, 0, 0, 0, 0, 0, 0, 0, 0, 0, 0, 0, 0, 0, 0, 0, 0]","[0, 0, 0, 0, 0, 1, 1, 1, 1, 1, 1, 2, 4, 6, 8, 10, 11, 12, 12, 12, 13, 14, 15, 15, 16, 16, 16, 16, 16, 15, 15, 15, 15, 15, 14, 13, 12, 11, 10, 10, 10, 10, 10, 10, 10, 10, 10, 10, 10, 10, 10, 10, 10, 10, 10, 10, 10, 10, 10, 10]"
"100","100","626.357142857","626.357142857","black","no","prac","2","legacy","legacy","b.png","w.png","w.png","w.png","1","legacy","0","relative","1","undefined","NA","blue","NA","undefined","1","undefined","undefined","blue","3","0","3","0","15","0","NA","15","15","15","15","15","0","15","15","15","15","0","4","NA","NA","15","0","0","0","0","0","0","0","15","10/09/20 17:02:43","Default description","yes","simont_HV.osexp","C:\Users\admin\Desktop\임채은\!MouseTracking_final","no","sans","no","18","no","black","no","yes","768","130","None","130","None","legacy","15","15","2","C:/Users/admin/Desktop/임채은/!MouseTracking_final/subject-4.csv","legacy","2","1","2","Kafkaesque Koffka","3.2.6","0","blue","space","NA","None","blue","start","space","NA","NA","NA","NA","485","74511","NA","250","485","302","63108","NA","NA","NA","NA","2","legacy","1024","2","48000","-16","experiment","4","even","legacy","red","green","blue","yellow","2","64587","NA","NA","184660","1475","NA","183419","183923","184175","183115","147142","1478","184669","185669","183923","184175","NA","NA","NA","NA","183115","NA","NA","NA","NA","NA","NA","139098","183114","[183924.0, 183934.0, 183944.0, 183954.0, 183964.0, 183974.0, 183984.0, 183994.0, 184004.0, 184014.0, 184024.0, 184034.0, 184044.0, 184054.0, 184064.0, 184074.0, 184084.0, 184094.0, 184104.0, 184114.0, 184124.0, 184134.0, 184144.0, 184154.0, 184164.0, 184174.0]","[184175.0, 184185.0, 184195.0, 184205.0, 184215.0, 184225.0, 184235.0, 184245.0, 184255.0, 184265.0, 184275.0, 184285.0, 184295.0, 184305.0, 184315.0, 184325.0, 184335.0, 184345.0, 184355.0, 184365.0, 184375.0, 184385.0, 184395.0, 184405.0, 184415.0, 184425.0, 184435.0, 184445.0, 184455.0, 184465.0, 184475.0, 184485.0, 184495.0, 184505.0, 184515.0, 184525.0, 184535.0, 184545.0, 184555.0, 184565.0, 184575.0, 184585.0, 184595.0, 184605.0, 184615.0, 184625.0, 184635.0, 184645.0, 184655.0, 184660]","example_experiment","14","8769","14","yes","768","4","[0, 0, 0, 0, 0, 0, 0, 0, 0, 0, 0, 0, 0, 0, 0, 0, 0, 0, 0, 0, 0, 0, 0, 0, 0, 0]","[0, 0, 0, 0, 0, 0, 0, 0, 0, 0, 0, 0, 0, 0, 2, 11, 24, 40, 56, 70, 80, 87, 93, 96, 96, 91, 79, 61, 41, 25, 13, 5, 2, 2, 2, 2, 2, 3, 4, 4, 5, 5, 5, 5, 5, 5, 5, 5, 5, 5]","[0, 0, 0, 0, 0, 0, 0, 0, 0, 0, 0, 0, 0, 0, 0, 0, 0, 0, 0, 0, 0, 0, 0, 0, 0, 0]","[0, 0, 0, 0, 0, 0, 0, 0, 0, 0, 0, 0, 0, 0, 0, 0, -1, -5, -11, -18, -28, -37, -48, -59, -76, -103, -135, -170, -207, -236, -261, -278, -291, -298, -304, -306, -309, -310, -312, -314, -316, -319, -320, -321, -321, -321, -321, -321, -321, -321]"
"100","100","628.8","628.8","black","no","prac","4","legacy","legacy","w.png","w.png","r.png","w.png","1","legacy","0","relative","1","undefined","NA","red","NA","undefined","1","undefined","undefined","red","1","0","3","0","16","0","NA","16","16","16","16","16","0","16","16","16","16","0","4","NA","NA","16","0","0","0","0","0","0","0","16","10/09/20 17:02:43","Default description","yes","simont_HV.osexp","C:\Users\admin\Desktop\임채은\!MouseTracking_final","no","sans","no","18","no","black","no","yes","768","210","None","210","None","legacy","16","16","2","C:/Users/admin/Desktop/임채은/!MouseTracking_final/subject-4.csv","legacy","2","2","1","Kafkaesque Koffka","3.2.6","0","red","space","NA","None","red","start","space","NA","NA","NA","NA","663","74511","NA","250","663","295","63108","NA","NA","NA","NA","2","legacy","1024","2","48000","-16","experiment","4","even","legacy","red","green","blue","yellow","1","64587","NA","NA","187498","1475","NA","186079","186583","186835","185782","147142","1478","187509","188509","186583","186835","NA","NA","NA","NA","185782","NA","NA","NA","NA","NA","NA","139098","185781","[186584.0, 186594.0, 186604.0, 186614.0, 186624.0, 186634.0, 186644.0, 186654.0, 186664.0, 186674.0, 186684.0, 186694.0, 186704.0, 186714.0, 186724.0, 186734.0, 186744.0, 186754.0, 186764.0, 186774.0, 186784.0, 186794.0, 186804.0, 186814.0, 186824.0, 186834.0]","[186835.0, 186845.0, 186855.0, 186865.0, 186875.0, 186885.0, 186895.0, 186905.0, 186915.0, 186925.0, 186935.0, 186945.0, 186955.0, 186965.0, 186975.0, 186985.0, 186995.0, 187005.0, 187015.0, 187025.0, 187035.0, 187045.0, 187055.0, 187065.0, 187075.0, 187085.0, 187095.0, 187105.0, 187115.0, 187125.0, 187135.0, 187145.0, 187155.0, 187165.0, 187175.0, 187185.0, 187195.0, 187205.0, 187215.0, 187225.0, 187235.0, 187245.0, 187255.0, 187265.0, 187275.0, 187285.0, 187295.0, 187305.0, 187315.0, 187325.0, 187335.0, 187345.0, 187355.0, 187365.0, 187375.0, 187385.0, 187395.0, 187405.0, 187415.0, 187425.0, 187435.0, 187445.0, 187455.0, 187465.0, 187475.0, 187485.0, 187495.0, 187498]","example_experiment","15","9432","15","yes","768","2","[0, 0, 0, 0, 0, 0, 0, 0, 0, 0, 0, 0, 0, 0, 0, 0, 0, 0, 0, 0, 0, 0, 0, 0, 0, 0]","[0, 0, 0, 0, 0, 0, 0, 0, 0, 0, 0, 0, 0, 0, 0, 0, 0, 0, 0, 0, 0, 0, -5, -10, -17, -25, -38, -57, -83, -112, -147, -183, -218, -244, -264, -283, -301, -317, -328, -334, -337, -337, -337, -337, -337, -337, -337, -336, -336, -336, -336, -336, -336, -336, -335, -335, -334, -332, -330, -328, -325, -323, -320, -316, -314, -313, -313, -313]","[0, 0, 0, 0, 0, 0, 0, 0, 0, 0, 0, 0, 0, 0, 0, 0, 0, 0, 0, 0, 0, 0, 0, 0, 0, 0]","[0, 0, 0, 0, 0, 0, 0, 0, 0, 0, 0, 0, 0, 0, 0, 0, 0, 0, 0, 0, 0, 0, 0, 1, 2, 2, 2, 2, 0, -2, -4, -6, -8, -9, -11, -12, -15, -17, -18, -19, -19, -19, -19, -19, -19, -18, -16, -15, -14, -14, -14, -14, -14, -14, -14, -14, -14, -14, -14, -13, -12, -11, -9, -7, -6, -6, -6, -6]"
"100","100","628.9375","628.9375","black","no","prac","4","legacy","legacy","b.png","w.png","w.png","w.png","1","legacy","0","relative","1","undefined","NA","blue","NA","undefined","1","undefined","undefined","blue","3","0","3","0","17","0","NA","17","17","17","17","17","0","17","17","17","17","0","4","NA","NA","17","0","0","0","0","0","0","0","17","10/09/20 17:02:43","Default description","yes","simont_HV.osexp","C:\Users\admin\Desktop\임채은\!MouseTracking_final","no","sans","no","18","no","black","no","yes","768","180","None","180","10","legacy","17","17","2","C:/Users/admin/Desktop/임채은/!MouseTracking_final/subject-4.csv","legacy","2","2","2","Kafkaesque Koffka","3.2.6","0","blue","space","NA","None","blue","start","space","NA","NA","NA","NA","631","74511","NA","250","631","301","63108","NA","NA","NA","NA","2","legacy","1024","2","48000","-16","experiment","4","even","legacy","red","green","blue","yellow","2","64587","NA","NA","190312","1475","NA","188925","189429","189681","188622","147142","1478","190319","191319","189429","189681","NA","NA","NA","NA","188622","NA","NA","NA","NA","NA","NA","139098","188621","[189430.0, 189440.0, 189450.0, 189460.0, 189470.0, 189480.0, 189490.0, 189500.0, 189510.0, 189520.0, 189530.0, 189540.0, 189550.0, 189560.0, 189570.0, 189580.0, 189590.0, 189600.0, 189610.0, 189620.0, 189630.0, 189640.0, 189650.0, 189660.0, 189670.0, 189680.0]","[189681.0, 189691.0, 189701.0, 189711.0, 189721.0, 189731.0, 189741.0, 189751.0, 189761.0, 189771.0, 189781.0, 189791.0, 189801.0, 189811.0, 189821.0, 189831.0, 189841.0, 189851.0, 189861.0, 189871.0, 189881.0, 189891.0, 189901.0, 189911.0, 189921.0, 189931.0, 189941.0, 189951.0, 189961.0, 189971.0, 189981.0, 189991.0, 190001.0, 190011.0, 190021.0, 190031.0, 190041.0, 190051.0, 190061.0, 190071.0, 190081.0, 190091.0, 190101.0, 190111.0, 190121.0, 190131.0, 190141.0, 190151.0, 190161.0, 190171.0, 190181.0, 190191.0, 190201.0, 190211.0, 190221.0, 190231.0, 190241.0, 190251.0, 190261.0, 190271.0, 190281.0, 190291.0, 190301.0, 190311.0, 190312]","example_experiment","16","10063","16","yes","768","4","[0, 0, 0, 0, 0, 0, 0, 0, 0, 0, 0, 0, 0, 0, 0, 0, 0, 0, 0, 0, 0, 0, 0, 0, 0, 0]","[0, 0, 0, 0, 0, 0, 0, 0, 0, 0, 0, 0, 0, 0, 0, 0, 0, 0, 0, 0, 0, 0, 0, -1, -1, -1, -1, -1, -1, -1, -1, 0, 1, 3, 6, 9, 10, 11, 12, 12, 12, 8, 3, -3, -9, -14, -15, -15, -15, -14, -12, -12, -11, -11, -10, -9, -8, -8, -7, -5, -5, -4, -4, -4, -4]","[0, 0, 0, 0, 0, 0, 0, 0, 0, 0, 0, 0, 0, 0, 0, 0, 0, 0, 0, 0, 0, 0, 0, 0, 0, 0]","[0, 0, 0, 0, 0, 0, 0, 0, 0, 0, 0, 0, 0, 0, 0, 0, 0, 0, 0, 1, 2, 4, 5, 6, 6, 7, 7, 7, 7, 7, 6, 2, -2, -7, -14, -24, -39, -62, -88, -118, -153, -198, -236, -266, -287, -305, -312, -314, -315, -316, -317, -317, -317, -317, -318, -319, -319, -321, -322, -324, -325, -326, -327, -327, -327]"
"100","100","622.058823529","622.058823529","black","no","prac","4","legacy","legacy","w.png","g.png","w.png","w.png","2","legacy","0","relative","1","undefined","NA","green","NA","undefined","1","undefined","undefined","green","2","0","3","0","18","0","NA","18","18","18","18","18","0","18","18","18","18","0","4","NA","NA","18","0","0","0","0","0","0","0","18","10/09/20 17:02:43","Default description","yes","simont_HV.osexp","C:\Users\admin\Desktop\임채은\!MouseTracking_final","no","sans","no","18","no","black","no","yes","768","0","None","0","None","legacy","18","18","1","C:/Users/admin/Desktop/임채은/!MouseTracking_final/subject-4.csv","legacy","2","2","2","Kafkaesque Koffka","3.2.6","0","green","space","NA","None","green","start","space","NA","NA","NA","NA","512","74511","NA","250","512","239","63108","NA","NA","NA","NA","2","legacy","1024","2","48000","-16","experiment","4","even","legacy","red","green","blue","yellow","1","64587","NA","NA","192934","1475","NA","191664","192169","192421","191424","147142","1478","192949","193949","192169","192421","NA","NA","NA","NA","191424","NA","NA","NA","NA","NA","NA","139098","191423","[192170.0, 192180.0, 192190.0, 192200.0, 192210.0, 192220.0, 192230.0, 192240.0, 192250.0, 192260.0, 192270.0, 192280.0, 192290.0, 192300.0, 192310.0, 192320.0, 192330.0, 192340.0, 192350.0, 192360.0, 192370.0, 192380.0, 192390.0, 192400.0, 192410.0, 192420.0]","[192421.0, 192431.0, 192441.0, 192451.0, 192461.0, 192471.0, 192481.0, 192491.0, 192501.0, 192511.0, 192521.0, 192531.0, 192541.0, 192551.0, 192561.0, 192571.0, 192581.0, 192591.0, 192601.0, 192611.0, 192621.0, 192631.0, 192641.0, 192651.0, 192661.0, 192671.0, 192681.0, 192691.0, 192701.0, 192711.0, 192721.0, 192731.0, 192741.0, 192751.0, 192761.0, 192771.0, 192781.0, 192791.0, 192801.0, 192811.0, 192821.0, 192831.0, 192841.0, 192851.0, 192861.0, 192871.0, 192881.0, 192891.0, 192901.0, 192911.0, 192921.0, 192931.0, 192933]","example_experiment","17","10575","17","yes","768","4","[0, 0, 0, 0, 0, 0, 0, 0, 0, 0, 0, 0, 0, 0, 0, 0, 0, 0, 0, 0, 0, 0, 0, 0, 0, 0]","[0, 0, 0, 0, -1, -1, -3, -5, -6, -7, -7, -7, -7, -7, -7, -7, -7, -7, -7, -5, 1, 9, 23, 44, 67, 100, 138, 179, 219, 254, 278, 293, 303, 308, 311, 314, 314, 314, 314, 314, 314, 314, 314, 314, 314, 313, 311, 310, 309, 308, 308, 308, 308]","[0, 0, 0, 0, 0, 0, 0, 0, 0, 0, 0, 0, 0, 0, 0, 0, 0, 0, 0, 0, 0, 0, 0, 0, 0, 0]","[0, 1, 1, 1, 1, 2, 3, 3, 4, 4, 5, 5, 5, 5, 5, 5, 5, 5, 5, 5, 5, 5, 5, 7, 10, 11, 14, 15, 15, 12, 6, 0, -6, -9, -11, -12, -13, -13, -13, -13, -13, -13, -13, -13, -13, -13, -12, -12, -10, -10, -10, -10, -10]"
"100","100","617.388888889","617.388888889","black","no","prac","3","legacy","legacy","y.png","w.png","w.png","w.png","2","legacy","0","relative","1","undefined","NA","yellow","NA","undefined","1","undefined","undefined","yellow","4","0","3","0","19","0","NA","19","19","19","19","19","0","19","19","19","19","0","4","NA","NA","19","0","0","0","0","0","0","0","19","10/09/20 17:02:43","Default description","yes","simont_HV.osexp","C:\Users\admin\Desktop\임채은\!MouseTracking_final","no","sans","no","18","no","black","no","yes","768","150","None","150","None","legacy","19","19","2","C:/Users/admin/Desktop/임채은/!MouseTracking_final/subject-4.csv","legacy","1","2","2","Kafkaesque Koffka","3.2.6","0","yellow","space","NA","None","yellow","start","space","NA","NA","NA","NA","538","74511","NA","250","538","286","63108","NA","NA","NA","NA","2","legacy","1024","2","48000","-16","experiment","4","even","legacy","red","green","blue","yellow","2","64587","NA","NA","195643","1475","NA","194348","194852","195104","194060","147142","1478","195659","196659","194852","195104","NA","NA","NA","NA","194060","NA","NA","NA","NA","NA","NA","139098","194059","[194853.0, 194863.0, 194873.0, 194883.0, 194893.0, 194903.0, 194913.0, 194923.0, 194933.0, 194943.0, 194953.0, 194963.0, 194973.0, 194983.0, 194993.0, 195003.0, 195013.0, 195023.0, 195033.0, 195043.0, 195053.0, 195063.0, 195073.0, 195083.0, 195093.0, 195103.0]","[195104.0, 195114.0, 195124.0, 195134.0, 195144.0, 195154.0, 195164.0, 195174.0, 195184.0, 195194.0, 195204.0, 195214.0, 195224.0, 195234.0, 195244.0, 195254.0, 195264.0, 195274.0, 195284.0, 195294.0, 195304.0, 195314.0, 195324.0, 195334.0, 195344.0, 195354.0, 195364.0, 195374.0, 195384.0, 195394.0, 195404.0, 195414.0, 195424.0, 195434.0, 195444.0, 195454.0, 195464.0, 195474.0, 195484.0, 195494.0, 195504.0, 195514.0, 195524.0, 195534.0, 195544.0, 195554.0, 195564.0, 195574.0, 195584.0, 195594.0, 195604.0, 195614.0, 195624.0, 195634.0, 195642]","example_experiment","18","11113","18","yes","768","3","[0, 0, 0, 0, 0, 0, 0, 0, 0, 0, 0, 0, 0, 0, 0, 0, 0, 0, 0, 0, 0, 0, 0, 0, 0, 0]","[0, 0, 0, 0, 0, 0, 0, 0, 0, 0, 0, 0, 0, 0, 0, 0, 0, -1, -1, -1, 0, 4, 8, 12, 14, 15, 17, 17, 15, 13, 11, 11, 9, 8, 7, 7, 7, 7, 6, 5, 4, 4, 4, 4, 4, 3, 3, 1, 0, -1, -2, -2, -2, -2, -2]","[0, 0, 0, 0, 0, 0, 0, 0, 0, 0, 0, 0, 0, 0, 0, 0, 0, 0, 0, 0, 0, 0, 0, 0, 0, 0]","[0, 0, 0, 0, 0, 0, 0, 0, 0, 0, 0, 0, 0, 0, 0, 0, 1, 4, 8, 14, 26, 39, 56, 74, 92, 110, 128, 148, 169, 185, 195, 205, 215, 226, 241, 255, 263, 268, 271, 273, 274, 275, 276, 278, 279, 281, 283, 286, 288, 289, 290, 291, 291, 292, 292]"
"100","100","605.368421053","605.368421053","black","no","prac","2","legacy","legacy","w.png","w.png","r.png","w.png","1","legacy","0","relative","1","undefined","NA","red","NA","undefined","1","undefined","undefined","red","1","0","3","0","20","0","NA","20","20","20","20","20","0","20","20","20","20","0","4","NA","NA","20","0","0","0","0","0","0","0","20","10/09/20 17:02:43","Default description","yes","simont_HV.osexp","C:\Users\admin\Desktop\임채은\!MouseTracking_final","no","sans","no","18","no","black","no","yes","768","10","None","10","None","legacy","20","20","2","C:/Users/admin/Desktop/임채은/!MouseTracking_final/subject-4.csv","legacy","2","1","2","Kafkaesque Koffka","3.2.6","0","red","space","NA","None","red","start","space","NA","NA","NA","NA","389","74511","NA","250","389","300","63108","NA","NA","NA","NA","2","legacy","1024","2","48000","-16","experiment","4","even","legacy","red","green","blue","yellow","1","64587","NA","NA","198213","1475","NA","197066","197571","197823","196765","147142","1478","198219","199219","197571","197823","NA","NA","NA","NA","196765","NA","NA","NA","NA","NA","NA","139098","196763","[197572.0, 197582.0, 197592.0, 197602.0, 197612.0, 197622.0, 197632.0, 197642.0, 197652.0, 197662.0, 197672.0, 197682.0, 197692.0, 197702.0, 197712.0, 197722.0, 197732.0, 197742.0, 197752.0, 197762.0, 197772.0, 197782.0, 197792.0, 197802.0, 197812.0, 197822.0]","[197823.0, 197833.0, 197843.0, 197853.0, 197863.0, 197873.0, 197883.0, 197893.0, 197903.0, 197913.0, 197923.0, 197933.0, 197943.0, 197953.0, 197963.0, 197973.0, 197983.0, 197993.0, 198003.0, 198013.0, 198023.0, 198033.0, 198043.0, 198053.0, 198063.0, 198073.0, 198083.0, 198093.0, 198103.0, 198113.0, 198123.0, 198133.0, 198143.0, 198153.0, 198163.0, 198173.0, 198183.0, 198193.0, 198203.0, 198212]","example_experiment","19","11502","19","yes","768","4","[0, 0, 0, 0, 0, 0, 0, 0, 0, 0, 0, 0, 0, 0, 0, 0, 0, 0, 0, 0, 0, 0, 0, 0, 0, 0]","[0, 0, 0, 1, 1, 1, 1, 1, 1, -2, -9, -20, -36, -56, -79, -110, -143, -182, -215, -246, -269, -287, -300, -308, -311, -311, -311, -310, -309, -307, -307, -307, -307, -307, -307, -307, -307, -307, -307, -307]","[0, 0, 0, 0, 0, 0, 0, 0, 0, 0, 0, 0, 0, 0, 0, 0, 0, 0, 0, 0, 0, 0, 0, 0, 0, 0]","[0, 0, 1, 1, 1, 1, 1, 1, 2, 2, 2, 3, 4, 4, 5, 6, 7, 7, 7, 8, 8, 7, 7, 7, 7, 7, 7, 7, 8, 8, 8, 8, 8, 8, 8, 8, 8, 8, 8, 8]"
"100","100","608.15","608.15","black","no","prac","4","legacy","legacy","w.png","w.png","w.png","y.png","2","legacy","0","relative","1","undefined","NA","yellow","NA","undefined","1","undefined","undefined","yellow","4","0","3","0","21","0","NA","21","21","21","21","21","0","21","21","21","21","0","4","NA","NA","21","0","0","0","0","0","0","0","21","10/09/20 17:02:43","Default description","yes","simont_HV.osexp","C:\Users\admin\Desktop\임채은\!MouseTracking_final","no","sans","no","18","no","black","no","yes","768","0","190","0","None","legacy","21","21","1","C:/Users/admin/Desktop/임채은/!MouseTracking_final/subject-4.csv","legacy","2","2","1","Kafkaesque Koffka","3.2.6","0","yellow","space","NA","None","yellow","start","space","NA","NA","NA","NA","661","74511","NA","250","661","193","63108","NA","NA","NA","NA","2","legacy","1024","2","48000","-16","experiment","4","even","legacy","red","green","blue","yellow","2","64587","NA","NA","200953","1475","NA","199534","200039","200291","199340","147142","1478","200969","201969","200039","200291","NA","NA","NA","NA","199340","NA","NA","NA","NA","NA","NA","139098","199339","[200040.0, 200050.0, 200060.0, 200070.0, 200080.0, 200090.0, 200100.0, 200110.0, 200120.0, 200130.0, 200140.0, 200150.0, 200160.0, 200170.0, 200180.0, 200190.0, 200200.0, 200210.0, 200220.0, 200230.0, 200240.0, 200250.0, 200260.0, 200270.0, 200280.0, 200290.0]","[200291.0, 200301.0, 200311.0, 200321.0, 200331.0, 200341.0, 200351.0, 200361.0, 200371.0, 200381.0, 200391.0, 200401.0, 200411.0, 200421.0, 200431.0, 200441.0, 200451.0, 200461.0, 200471.0, 200481.0, 200491.0, 200501.0, 200511.0, 200521.0, 200531.0, 200541.0, 200551.0, 200561.0, 200571.0, 200581.0, 200591.0, 200601.0, 200611.0, 200621.0, 200631.0, 200641.0, 200651.0, 200661.0, 200671.0, 200681.0, 200691.0, 200701.0, 200711.0, 200721.0, 200731.0, 200741.0, 200751.0, 200761.0, 200771.0, 200781.0, 200791.0, 200801.0, 200811.0, 200821.0, 200831.0, 200841.0, 200851.0, 200861.0, 200871.0, 200881.0, 200891.0, 200901.0, 200911.0, 200921.0, 200931.0, 200941.0, 200951.0, 200952]","example_experiment","20","12163","20","yes","768","2","[0, 0, 0, 0, 0, 0, 0, 0, 0, 0, 0, 0, 0, 0, 0, 0, 0, 0, 0, 0, 1, 1, 1, 1, 1, 1]","[1, 2, 2, 2, 2, 2, 2, 2, 2, 2, 1, -3, -7, -12, -15, -18, -21, -24, -27, -30, -32, -32, -32, -30, -28, -25, -25, -25, -26, -28, -26, -20, -13, -7, -4, -4, -4, -5, -5, -5, -5, -5, -5, -5, -5, -4, -3, -2, -2, -2, -2, -2, -1, 0, 0, 1, 1, 3, 4, 5, 5, 6, 6, 6, 6, 6, 6, 6]","[0, 0, 0, 0, 0, 0, 0, 0, 0, 0, 0, 0, 0, 0, 0, 0, 0, 0, 0, 0, 0, 0, 0, 0, 0, 0]","[0, 0, 0, -1, -2, -3, -4, -5, -6, -6, -7, -8, -9, -9, -9, -9, -8, -7, -5, -4, -2, 0, 4, 8, 14, 21, 31, 42, 60, 81, 110, 144, 174, 201, 220, 237, 257, 278, 297, 317, 330, 338, 343, 348, 352, 355, 357, 359, 359, 359, 359, 358, 356, 354, 352, 349, 346, 343, 340, 336, 335, 335, 335, 335, 335, 334, 334, 334]"
"100","100","601.095238095","601.095238095","black","no","prac","4","legacy","legacy","w.png","g.png","w.png","w.png","2","legacy","0","relative","1","undefined","NA","green","NA","undefined","1","undefined","undefined","green","2","0","3","0","22","0","NA","22","22","22","22","22","0","22","22","22","22","0","4","NA","NA","22","0","0","0","0","0","0","0","22","10/09/20 17:02:43","Default description","yes","simont_HV.osexp","C:\Users\admin\Desktop\임채은\!MouseTracking_final","no","sans","no","18","no","black","no","yes","768","80","None","80","None","legacy","22","22","1","C:/Users/admin/Desktop/임채은/!MouseTracking_final/subject-4.csv","legacy","2","2","2","Kafkaesque Koffka","3.2.6","0","green","space","NA","None","green","start","space","NA","NA","NA","NA","460","74511","NA","250","460","278","63108","NA","NA","NA","NA","2","legacy","1024","2","48000","-16","experiment","4","even","legacy","red","green","blue","yellow","1","64587","NA","NA","203590","1475","NA","202373","202877","203129","202093","147142","1478","203609","204609","202877","203129","NA","NA","NA","NA","202093","NA","NA","NA","NA","NA","NA","139098","202091","[202878.0, 202888.0, 202898.0, 202908.0, 202918.0, 202928.0, 202938.0, 202948.0, 202958.0, 202968.0, 202978.0, 202988.0, 202998.0, 203008.0, 203018.0, 203028.0, 203038.0, 203048.0, 203058.0, 203068.0, 203078.0, 203088.0, 203098.0, 203108.0, 203118.0, 203128.0]","[203129.0, 203139.0, 203149.0, 203159.0, 203169.0, 203179.0, 203189.0, 203199.0, 203209.0, 203219.0, 203229.0, 203239.0, 203249.0, 203259.0, 203269.0, 203279.0, 203289.0, 203299.0, 203309.0, 203319.0, 203329.0, 203339.0, 203349.0, 203359.0, 203369.0, 203379.0, 203389.0, 203399.0, 203409.0, 203419.0, 203429.0, 203439.0, 203449.0, 203459.0, 203469.0, 203479.0, 203489.0, 203499.0, 203509.0, 203519.0, 203529.0, 203539.0, 203549.0, 203559.0, 203569.0, 203579.0, 203589.0, 203589]","example_experiment","21","12623","21","yes","768","4","[0, 0, 0, 0, 0, 0, 0, 0, 0, 0, 0, 0, 0, 0, 0, 0, 0, 0, 0, 0, 0, 0, 0, 0, 0, 0]","[0, 0, 0, 0, 0, 0, 0, 0, 0, 1, 7, 19, 36, 53, 75, 99, 125, 151, 175, 193, 206, 214, 217, 220, 223, 230, 240, 250, 260, 270, 280, 287, 293, 294, 294, 294, 294, 296, 299, 304, 310, 315, 320, 322, 323, 323, 324, 324]","[0, 0, 0, 0, 0, 0, 0, 0, 0, 0, 0, 0, 0, 0, 0, 0, 0, 0, 0, 0, 0, 0, 0, 0, 0, 0]","[0, 0, 0, 0, 0, 0, 0, 0, 0, 0, 0, -1, -3, -4, -6, -8, -10, -13, -17, -20, -21, -22, -22, -23, -23, -23, -23, -21, -21, -21, -21, -22, -22, -22, -23, -23, -23, -21, -17, -12, -9, -6, -5, -4, -4, -4, -4, -4]"
"100","100","596.545454545","596.545454545","black","no","prac","3","legacy","legacy","w.png","w.png","w.png","b.png","1","legacy","0","relative","1","undefined","NA","blue","NA","undefined","1","undefined","undefined","blue","3","0","3","0","23","0","NA","23","23","23","23","23","0","23","23","23","23","0","4","NA","NA","23","0","0","0","0","0","0","0","23","10/09/20 17:02:43","Default description","yes","simont_HV.osexp","C:\Users\admin\Desktop\임채은\!MouseTracking_final","no","sans","no","18","no","black","no","yes","768","140","None","140","None","legacy","23","23","1","C:/Users/admin/Desktop/임채은/!MouseTracking_final/subject-4.csv","legacy","1","2","2","Kafkaesque Koffka","3.2.6","0","blue","space","NA","None","blue","start","space","NA","NA","NA","NA","501","74511","NA","250","501","268","63108","NA","NA","NA","NA","2","legacy","1024","2","48000","-16","experiment","4","even","legacy","red","green","blue","yellow","2","64587","NA","NA","206261","1475","NA","205003","205507","205759","204733","147142","1478","206279","207279","205507","205759","NA","NA","NA","NA","204733","NA","NA","NA","NA","NA","NA","139098","204732","[205508.0, 205518.0, 205528.0, 205538.0, 205548.0, 205558.0, 205568.0, 205578.0, 205588.0, 205598.0, 205608.0, 205618.0, 205628.0, 205638.0, 205648.0, 205658.0, 205668.0, 205678.0, 205688.0, 205698.0, 205708.0, 205718.0, 205728.0, 205738.0, 205748.0, 205758.0]","[205759.0, 205769.0, 205779.0, 205789.0, 205799.0, 205809.0, 205819.0, 205829.0, 205839.0, 205849.0, 205859.0, 205869.0, 205879.0, 205889.0, 205899.0, 205909.0, 205919.0, 205929.0, 205939.0, 205949.0, 205959.0, 205969.0, 205979.0, 205989.0, 205999.0, 206009.0, 206019.0, 206029.0, 206039.0, 206049.0, 206059.0, 206069.0, 206079.0, 206089.0, 206099.0, 206109.0, 206119.0, 206129.0, 206139.0, 206149.0, 206159.0, 206169.0, 206179.0, 206189.0, 206199.0, 206209.0, 206219.0, 206229.0, 206239.0, 206249.0, 206259.0, 206260]","example_experiment","22","13124","22","yes","768","3","[0, 0, 0, 0, 0, 0, 0, 0, 0, 0, 0, 0, 0, 0, 0, 0, 0, 0, 0, 0, 0, 0, 0, 0, 0, 0]","[0, 0, 0, 0, 0, 0, 0, 0, 0, 0, 0, 0, 0, 0, 0, 3, 6, 9, 10, 10, 8, 8, 8, 8, 11, 11, 9, 5, -1, -4, -7, -8, -8, -8, -8, -9, -9, -9, -9, -9, -9, -9, -9, -9, -8, -8, -7, -7, -7, -7, -7, -7]","[0, 0, 0, 0, 0, 0, 0, 0, 0, 0, 0, 0, 0, 0, 0, 0, 0, 0, 0, 0, 0, 0, 0, 0, 0, 0]","[0, 0, 0, 0, 0, 0, 0, 0, 0, 0, 0, 0, 0, 0, 0, -2, -9, -25, -44, -71, -98, -125, -157, -186, -221, -257, -288, -312, -330, -340, -345, -347, -347, -347, -346, -343, -341, -337, -335, -333, -332, -331, -330, -329, -328, -328, -328, -328, -328, -328, -328, -328]"
"100","100","589.695652174","589.695652174","black","no","prac","1","legacy","legacy","w.png","r.png","w.png","w.png","1","legacy","0","relative","1","undefined","NA","red","NA","undefined","1","undefined","undefined","red","1","0","3","0","24","0","NA","24","24","24","24","24","0","24","24","24","24","0","4","NA","NA","24","0","0","0","0","0","0","0","24","10/09/20 17:02:43","Default description","yes","simont_HV.osexp","C:\Users\admin\Desktop\임채은\!MouseTracking_final","no","sans","no","18","no","black","no","yes","768","30","None","30","None","legacy","24","24","1","C:/Users/admin/Desktop/임채은/!MouseTracking_final/subject-4.csv","legacy","1","1","2","Kafkaesque Koffka","3.2.6","0","red","space","NA","None","red","start","space","NA","NA","NA","NA","439","74511","NA","250","439","261","63108","NA","NA","NA","NA","2","legacy","1024","2","48000","-16","experiment","4","even","legacy","red","green","blue","yellow","1","64587","NA","NA","208868","1475","NA","207672","208176","208428","207408","147142","1478","208879","209879","208176","208428","NA","NA","NA","NA","207408","NA","NA","NA","NA","NA","NA","139098","207407","[208177.0, 208187.0, 208197.0, 208207.0, 208217.0, 208227.0, 208237.0, 208247.0, 208257.0, 208267.0, 208277.0, 208287.0, 208297.0, 208307.0, 208317.0, 208327.0, 208337.0, 208347.0, 208357.0, 208367.0, 208377.0, 208387.0, 208397.0, 208407.0, 208417.0, 208427.0]","[208428.0, 208438.0, 208448.0, 208458.0, 208468.0, 208478.0, 208488.0, 208498.0, 208508.0, 208518.0, 208528.0, 208538.0, 208548.0, 208558.0, 208568.0, 208578.0, 208588.0, 208598.0, 208608.0, 208618.0, 208628.0, 208638.0, 208648.0, 208658.0, 208668.0, 208678.0, 208688.0, 208698.0, 208708.0, 208718.0, 208728.0, 208738.0, 208748.0, 208758.0, 208768.0, 208778.0, 208788.0, 208798.0, 208808.0, 208818.0, 208828.0, 208838.0, 208848.0, 208858.0, 208867]","example_experiment","23","13563","23","yes","768","3","[0, 0, 0, 0, 0, 0, 0, 0, 0, 0, 0, 0, 0, 0, 0, 0, 0, 0, 0, 0, 0, 0, 0, 0, 0, 0]","[0, 0, 0, 0, 0, -1, -1, -3, -8, -20, -40, -71, -104, -137, -169, -198, -222, -239, -251, -258, -262, -265, -267, -267, -268, -268, -269, -273, -278, -282, -282, -282, -282, -282, -282, -282, -283, -286, -290, -293, -296, -297, -298, -298, -298]","[0, 0, 0, 0, 0, 0, 0, 0, 0, 0, 0, 0, 0, 0, 0, 0, 0, 0, 0, 0, 0, 0, 0, 0, 0, 0]","[0, 0, 0, 0, 1, 2, 2, 3, 4, 6, 9, 12, 14, 16, 17, 19, 20, 20, 20, 20, 20, 20, 20, 20, 20, 20, 20, 19, 19, 18, 18, 18, 18, 18, 18, 18, 17, 16, 14, 13, 12, 12, 11, 11, 11]"
"100","100","591.166666667","591.166666667","black","no","prac","2","legacy","legacy","w.png","w.png","w.png","y.png","2","legacy","0","relative","1","undefined","NA","yellow","NA","undefined","1","undefined","undefined","yellow","4","0","3","0","25","0","NA","25","25","25","25","25","0","25","25","25","25","0","4","NA","NA","25","0","0","0","0","0","0","0","25","10/09/20 17:02:43","Default description","yes","simont_HV.osexp","C:\Users\admin\Desktop\임채은\!MouseTracking_final","no","sans","no","18","no","black","no","yes","768","250","None","250","None","legacy","25","25","1","C:/Users/admin/Desktop/임채은/!MouseTracking_final/subject-4.csv","legacy","2","1","1","Kafkaesque Koffka","3.2.6","0","yellow","space","NA","None","yellow","start","space","NA","NA","NA","NA","625","74511","NA","250","625","219","63108","NA","NA","NA","NA","2","legacy","1024","2","48000","-16","experiment","4","even","legacy","red","green","blue","yellow","2","64587","NA","NA","211596","1475","NA","210214","210718","210970","209993","147142","1478","211609","212609","210718","210970","NA","NA","NA","NA","209993","NA","NA","NA","NA","NA","NA","139098","209990","[210719.0, 210729.0, 210739.0, 210749.0, 210759.0, 210769.0, 210779.0, 210789.0, 210799.0, 210809.0, 210819.0, 210829.0, 210839.0, 210849.0, 210859.0, 210869.0, 210879.0, 210889.0, 210899.0, 210909.0, 210919.0, 210929.0, 210939.0, 210949.0, 210959.0, 210969.0]","[210970.0, 210980.0, 210990.0, 211000.0, 211010.0, 211020.0, 211030.0, 211040.0, 211050.0, 211060.0, 211070.0, 211080.0, 211090.0, 211100.0, 211110.0, 211120.0, 211130.0, 211140.0, 211150.0, 211160.0, 211170.0, 211180.0, 211190.0, 211200.0, 211210.0, 211220.0, 211230.0, 211240.0, 211250.0, 211260.0, 211270.0, 211280.0, 211290.0, 211300.0, 211310.0, 211320.0, 211330.0, 211340.0, 211350.0, 211360.0, 211370.0, 211380.0, 211390.0, 211400.0, 211410.0, 211420.0, 211430.0, 211440.0, 211450.0, 211460.0, 211470.0, 211480.0, 211490.0, 211500.0, 211510.0, 211520.0, 211530.0, 211540.0, 211550.0, 211560.0, 211570.0, 211580.0, 211590.0, 211595]","example_experiment","24","14188","24","yes","768","2","[0, 0, 0, 0, 0, 0, 0, 0, 0, 0, 0, 0, 0, 0, 0, 0, 0, 0, 0, 0, 0, 0, 0, 0, 0, 0]","[0, 0, 0, 0, 0, 0, 0, 0, 0, 0, 0, 0, 0, 0, 0, 0, 0, 0, 0, 0, 0, 0, 0, 0, 0, 0, 0, 0, 0, 0, 0, 0, 0, 0, 0, 1, 1, 0, 0, 0, 0, 0, 4, 8, 9, 9, 9, 10, 10, 10, 10, 9, 7, 5, 4, 3, 2, 2, 2, 2, 2, 2, 2, 2]","[0, 0, 0, 0, 0, 0, 0, 0, 0, 0, 0, 0, 0, 0, 0, 0, 0, 0, 0, 0, 0, 0, 0, 0, 0, 0]","[0, 0, 0, 0, 0, 0, 0, 0, 0, 0, 0, 0, 0, 0, 0, 0, 0, 0, 0, 0, 0, 0, 0, 0, 0, 0, -1, -5, -10, -14, -16, -18, -18, -18, -18, -11, 5, 28, 61, 108, 145, 187, 218, 251, 275, 294, 308, 314, 315, 315, 314, 308, 302, 299, 296, 293, 292, 292, 292, 292, 292, 292, 292, 292]"
"100","100","586.4","586.4","black","no","prac","3","legacy","legacy","w.png","w.png","g.png","w.png","2","legacy","0","relative","1","undefined","NA","green","NA","undefined","1","undefined","undefined","green","2","0","3","0","26","0","NA","26","26","26","26","26","0","26","26","26","26","0","4","NA","NA","26","0","0","0","0","0","0","0","26","10/09/20 17:02:43","Default description","yes","simont_HV.osexp","C:\Users\admin\Desktop\임채은\!MouseTracking_final","no","sans","no","18","no","black","no","yes","768","190","None","190","None","legacy","26","26","2","C:/Users/admin/Desktop/임채은/!MouseTracking_final/subject-4.csv","legacy","1","2","1","Kafkaesque Koffka","3.2.6","0","green","space","NA","None","green","start","space","NA","NA","NA","NA","472","74511","NA","250","472","244","63108","NA","NA","NA","NA","2","legacy","1024","2","48000","-16","experiment","4","even","legacy","red","green","blue","yellow","1","64587","NA","NA","214196","1475","NA","212967","213471","213723","212722","147142","1478","214199","215199","213471","213723","NA","NA","NA","NA","212722","NA","NA","NA","NA","NA","NA","139098","212721","[213472.0, 213482.0, 213492.0, 213502.0, 213512.0, 213522.0, 213532.0, 213542.0, 213552.0, 213562.0, 213572.0, 213582.0, 213592.0, 213602.0, 213612.0, 213622.0, 213632.0, 213642.0, 213652.0, 213662.0, 213672.0, 213682.0, 213692.0, 213702.0, 213712.0, 213722.0]","[213723.0, 213733.0, 213743.0, 213753.0, 213763.0, 213773.0, 213783.0, 213793.0, 213803.0, 213813.0, 213823.0, 213833.0, 213843.0, 213853.0, 213863.0, 213873.0, 213883.0, 213893.0, 213903.0, 213913.0, 213923.0, 213933.0, 213943.0, 213953.0, 213963.0, 213973.0, 213983.0, 213993.0, 214003.0, 214013.0, 214023.0, 214033.0, 214043.0, 214053.0, 214063.0, 214073.0, 214083.0, 214093.0, 214103.0, 214113.0, 214123.0, 214133.0, 214143.0, 214153.0, 214163.0, 214173.0, 214183.0, 214193.0, 214195]","example_experiment","25","14660","25","yes","768","1","[0, 0, 0, 0, 0, 0, 0, 0, 0, 0, 0, 0, 0, 0, 0, 0, 0, 0, 0, 0, 0, 0, 0, 0, 0, 0]","[0, 0, 0, 0, 0, 0, 0, 0, 0, 0, 0, 0, 0, 0, 0, 0, 0, 0, 0, 0, 3, 13, 29, 48, 70, 96, 124, 156, 187, 214, 240, 254, 264, 270, 274, 276, 278, 280, 282, 286, 288, 290, 291, 292, 293, 293, 294, 294, 294]","[0, 0, 0, 0, 0, 0, 0, 0, 0, 0, 0, 0, 0, 0, 0, 0, 0, 0, 0, 0, 0, 0, 0, 0, 0, 0]","[0, 0, 0, 0, 0, 0, 0, 0, 0, 0, 0, 0, 0, 0, 0, 0, 0, 0, 0, 0, 0, 1, 2, 2, 2, 1, -1, -3, -6, -10, -15, -17, -19, -19, -19, -19, -18, -16, -14, -11, -10, -10, -10, -10, -10, -10, -10, -10, -10]"
"100","100","586.423076923","586.423076923","black","no","prac","2","legacy","legacy","b.png","w.png","w.png","w.png","1","legacy","0","relative","1","undefined","NA","blue","NA","undefined","1","undefined","undefined","blue","3","0","3","0","27","0","NA","27","27","27","27","27","0","27","27","27","27","0","4","NA","NA","27","0","0","0","0","0","0","0","27","10/09/20 17:02:43","Default description","yes","simont_HV.osexp","C:\Users\admin\Desktop\임채은\!MouseTracking_final","no","sans","no","18","no","black","no","yes","768","30","None","30","None","legacy","27","27","2","C:/Users/admin/Desktop/임채은/!MouseTracking_final/subject-4.csv","legacy","2","1","2","Kafkaesque Koffka","3.2.6","0","blue","space","NA","None","blue","start","space","NA","NA","NA","NA","587","74511","NA","250","587","237","63108","NA","NA","NA","NA","2","legacy","1024","2","48000","-16","experiment","4","even","legacy","red","green","blue","yellow","2","64587","NA","NA","216906","1475","NA","215562","216066","216318","215323","147142","1478","216929","217929","216066","216318","NA","NA","NA","NA","215323","NA","NA","NA","NA","NA","NA","139098","215321","[216067.0, 216077.0, 216087.0, 216097.0, 216107.0, 216117.0, 216127.0, 216137.0, 216147.0, 216157.0, 216167.0, 216177.0, 216187.0, 216197.0, 216207.0, 216217.0, 216227.0, 216237.0, 216247.0, 216257.0, 216267.0, 216277.0, 216287.0, 216297.0, 216307.0, 216317.0]","[216318.0, 216328.0, 216338.0, 216348.0, 216358.0, 216368.0, 216378.0, 216388.0, 216398.0, 216408.0, 216418.0, 216428.0, 216438.0, 216448.0, 216458.0, 216468.0, 216478.0, 216488.0, 216498.0, 216508.0, 216518.0, 216528.0, 216538.0, 216548.0, 216558.0, 216568.0, 216578.0, 216588.0, 216598.0, 216608.0, 216618.0, 216628.0, 216638.0, 216648.0, 216658.0, 216668.0, 216678.0, 216688.0, 216698.0, 216708.0, 216718.0, 216728.0, 216738.0, 216748.0, 216758.0, 216768.0, 216778.0, 216788.0, 216798.0, 216808.0, 216818.0, 216828.0, 216838.0, 216848.0, 216858.0, 216868.0, 216878.0, 216888.0, 216898.0, 216905]","example_experiment","26","15247","26","yes","768","4","[0, 0, 0, 0, 0, 0, 0, 0, 0, 0, 0, 0, 0, 0, 0, 0, 0, 0, 0, 0, 0, 0, 0, 0, 0, 0]","[0, 0, 0, 0, 1, 2, 2, 2, 2, -2, -4, -7, -8, -8, -10, -10, -10, -10, -8, -6, -5, -5, -7, -11, -11, -8, -3, 3, 6, 7, 7, 5, 5, 5, 6, 7, 7, 8, 10, 13, 14, 15, 15, 15, 15, 16, 16, 16, 16, 16, 15, 15, 14, 12, 11, 9, 7, 6, 5, 5]","[0, 0, 0, 0, 0, 0, 0, 0, 0, 0, 0, 0, 0, 0, 0, 0, 0, 0, 0, 0, 0, 0, 0, 0, 0, 0]","[0, 0, 0, 0, 1, 3, 8, 16, 29, 43, 63, 82, 101, 116, 131, 141, 146, 147, 147, 138, 122, 93, 66, 33, 2, -36, -73, -114, -155, -189, -220, -243, -259, -269, -274, -276, -276, -276, -273, -269, -267, -266, -265, -265, -265, -265, -268, -271, -274, -277, -280, -285, -291, -300, -309, -317, -321, -325, -327, -327]"
"100","100","579.592592593","579.592592593","black","no","prac","4","legacy","legacy","b.png","w.png","w.png","w.png","1","legacy","0","relative","1","undefined","NA","blue","NA","undefined","1","undefined","undefined","blue","3","0","3","0","28","0","NA","28","28","28","28","28","0","28","28","28","28","0","4","NA","NA","28","0","0","0","0","0","0","0","28","10/09/20 17:02:43","Default description","yes","simont_HV.osexp","C:\Users\admin\Desktop\임채은\!MouseTracking_final","no","sans","no","18","no","black","no","yes","768","10","None","10","None","legacy","28","28","2","C:/Users/admin/Desktop/임채은/!MouseTracking_final/subject-4.csv","legacy","2","2","2","Kafkaesque Koffka","3.2.6","0","blue","space","NA","None","blue","start","space","NA","NA","NA","NA","402","74511","NA","250","402","219","63108","NA","NA","NA","NA","2","legacy","1024","2","48000","-16","experiment","4","even","legacy","red","green","blue","yellow","2","64587","NA","NA","219435","1475","NA","218276","218780","219032","218056","147142","1478","219439","220439","218780","219032","NA","NA","NA","NA","218056","NA","NA","NA","NA","NA","NA","139098","218055","[218781.0, 218791.0, 218801.0, 218811.0, 218821.0, 218831.0, 218841.0, 218851.0, 218861.0, 218871.0, 218881.0, 218891.0, 218901.0, 218911.0, 218921.0, 218931.0, 218941.0, 218951.0, 218961.0, 218971.0, 218981.0, 218991.0, 219001.0, 219011.0, 219021.0, 219031.0]","[219032.0, 219042.0, 219052.0, 219062.0, 219072.0, 219082.0, 219092.0, 219102.0, 219112.0, 219122.0, 219132.0, 219142.0, 219152.0, 219162.0, 219172.0, 219182.0, 219192.0, 219202.0, 219212.0, 219222.0, 219232.0, 219242.0, 219252.0, 219262.0, 219272.0, 219282.0, 219292.0, 219302.0, 219312.0, 219322.0, 219332.0, 219342.0, 219352.0, 219362.0, 219372.0, 219382.0, 219392.0, 219402.0, 219412.0, 219422.0, 219432.0, 219434]","example_experiment","27","15649","27","yes","768","4","[0, 0, 0, 0, 0, 0, 0, 0, 0, 0, 0, 0, 0, 0, 0, 0, 0, 0, 0, 0, 0, 0, 0, 0, 0, 0]","[0, 0, 0, 0, 2, 4, 4, 4, 4, 4, 5, 5, 6, 7, 7, 5, 2, -3, -7, -11, -15, -16, -16, -15, -11, -4, 3, 7, 10, 11, 11, 11, 11, 11, 11, 11, 11, 11, 11, 11, 11, 11]","[0, 0, 0, 0, 0, 0, 0, 0, 0, 0, 0, 0, 0, 0, 0, 0, 0, 0, 0, 0, 0, 0, 0, 0, 0, 0]","[0, 0, 1, 7, 18, 31, 43, 52, 59, 63, 64, 64, 63, 55, 37, 7, -25, -61, -93, -125, -159, -189, -219, -246, -273, -299, -318, -332, -340, -343, -344, -344, -344, -344, -344, -343, -343, -343, -343, -343, -343, -343]"
"100","100","571.714285714","571.714285714","black","no","prac","3","legacy","legacy","w.png","w.png","g.png","w.png","2","legacy","0","relative","1","undefined","NA","green","NA","undefined","1","undefined","undefined","green","2","0","3","0","29","0","NA","29","29","29","29","29","0","29","29","29","29","0","4","NA","NA","29","0","0","0","0","0","0","0","29","10/09/20 17:02:43","Default description","yes","simont_HV.osexp","C:\Users\admin\Desktop\임채은\!MouseTracking_final","no","sans","no","18","no","black","no","yes","768","90","0","90","None","legacy","29","29","2","C:/Users/admin/Desktop/임채은/!MouseTracking_final/subject-4.csv","legacy","1","2","2","Kafkaesque Koffka","3.2.6","0","green","space","NA","None","green","start","space","NA","NA","NA","NA","359","74511","NA","250","359","253","63108","NA","NA","NA","NA","2","legacy","1024","2","48000","-16","experiment","4","even","legacy","red","green","blue","yellow","1","64587","NA","NA","221950","1475","NA","220834","221338","221590","220579","147142","1478","221959","222959","221338","221590","NA","NA","NA","NA","220579","NA","NA","NA","NA","NA","NA","139098","220578","[221339.0, 221349.0, 221359.0, 221369.0, 221379.0, 221389.0, 221399.0, 221409.0, 221419.0, 221429.0, 221439.0, 221449.0, 221459.0, 221469.0, 221479.0, 221489.0, 221499.0, 221509.0, 221519.0, 221529.0, 221539.0, 221549.0, 221559.0, 221569.0, 221579.0, 221589.0]","[221590.0, 221600.0, 221610.0, 221620.0, 221630.0, 221640.0, 221650.0, 221660.0, 221670.0, 221680.0, 221690.0, 221700.0, 221710.0, 221720.0, 221730.0, 221740.0, 221750.0, 221760.0, 221770.0, 221780.0, 221790.0, 221800.0, 221810.0, 221820.0, 221830.0, 221840.0, 221850.0, 221860.0, 221870.0, 221880.0, 221890.0, 221900.0, 221910.0, 221920.0, 221930.0, 221940.0, 221949]","example_experiment","28","16008","28","yes","768","3","[0, 4, 8, 9, 7, 4, 1, 1, 1, 1, 1, 1, 1, 1, 1, 1, 1, 1, 1, 1, 1, 1, 1, 1, 1, 1]","[1, 1, 1, 1, 1, 1, 1, 1, 1, 1, 2, 5, 14, 31, 56, 93, 130, 166, 200, 230, 253, 271, 284, 289, 289, 289, 289, 289, 289, 289, 289, 289, 290, 290, 290, 290, 290]","[0, -2, -8, -11, -13, -14, -15, -15, -16, -16, -16, -16, -16, -16, -16, -16, -16, -16, -16, -16, -16, -16, -16, -16, -16, -16]","[-16, -16, -16, -16, -16, -16, -16, -16, -16, -16, -16, -16, -16, -16, -15, -13, -9, -7, -6, -6, -7, -7, -9, -11, -11, -11, -11, -11, -11, -11, -11, -11, -11, -11, -11, -11, -11]"
"100","100","569.75862069","569.75862069","black","no","block1","0","legacy","legacy","w.png","r.png","w.png","w.png","1","legacy","0","relative","1","undefined","NA","red","NA","undefined","1","undefined","undefined","red","1","0","3","0","30","0","NA","30","30","30","30","30","0","30","30","30","30","0","4","NA","NA","30","0","0","0","0","0","0","0","30","10/09/20 17:02:43","Default description","yes","simont_HV.osexp","C:\Users\admin\Desktop\임채은\!MouseTracking_final","no","sans","no","18","no","black","no","yes","768","50","210","50","None","legacy","0","29","1","C:/Users/admin/Desktop/임채은/!MouseTracking_final/subject-4.csv","legacy","1","0","0","Kafkaesque Koffka","3.2.6","0","red","space","NA","None","red","start","space","space","NA","NA","NA","515","74511","NA","250","515","382","63108","36087","NA","NA","NA","2","legacy","1024","2","48000","-16","experiment","4","even","legacy","red","green","blue","yellow","1","64587","NA","NA","260812","1475","NA","259539","260044","260296","259155","147142","1478","260829","261829","260044","260296","223006","NA","NA","NA","259155","259093","NA","NA","NA","NA","NA","139098","259154","[260045.0, 260055.0, 260065.0, 260075.0, 260085.0, 260095.0, 260105.0, 260115.0, 260125.0, 260135.0, 260145.0, 260155.0, 260165.0, 260175.0, 260185.0, 260195.0, 260205.0, 260215.0, 260225.0, 260235.0, 260245.0, 260255.0, 260265.0, 260275.0, 260285.0, 260295.0]","[260296.0, 260306.0, 260316.0, 260326.0, 260336.0, 260346.0, 260356.0, 260366.0, 260376.0, 260386.0, 260396.0, 260406.0, 260416.0, 260426.0, 260436.0, 260446.0, 260456.0, 260466.0, 260476.0, 260486.0, 260496.0, 260506.0, 260516.0, 260526.0, 260536.0, 260546.0, 260556.0, 260566.0, 260576.0, 260586.0, 260596.0, 260606.0, 260616.0, 260626.0, 260636.0, 260646.0, 260656.0, 260666.0, 260676.0, 260686.0, 260696.0, 260706.0, 260716.0, 260726.0, 260736.0, 260746.0, 260756.0, 260766.0, 260776.0, 260786.0, 260796.0, 260806.0, 260811]","example_experiment","29","16523","29","yes","768","0","[0, 0, 0, 0, 0, 0, 0, 0, 0, 0, 0, 0, 0, 0, 0, 0, 0, 0, 0, 0, 0, 0, 0, 0, 0, 0]","[0, 0, 0, 0, 0, 0, -1, -3, -4, -4, -5, -5, -5, -4, -3, -2, -3, -7, -15, -26, -42, -60, -81, -104, -132, -163, -192, -218, -241, -259, -272, -284, -290, -293, -293, -293, -293, -293, -293, -293, -293, -293, -293, -293, -291, -289, -288, -287, -287, -290, -292, -292, -292]","[0, 0, 0, 0, 0, 0, 0, 0, 0, 0, 0, 0, 0, 0, 0, 0, 0, 0, 0, 0, 0, 0, 1, 1, 1, 1]","[1, 1, 1, 1, 1, 1, 1, 1, 1, 1, 1, 0, -2, -5, -10, -14, -19, -24, -29, -34, -38, -38, -38, -33, -25, -17, -8, 0, 10, 17, 23, 26, 27, 27, 27, 27, 27, 27, 27, 27, 26, 26, 24, 22, 19, 16, 11, 6, 1, -3, -5, -6, -6]"
"100","100","571.366666667","571.366666667","black","no","block1","0","legacy","legacy","w.png","w.png","w.png","b.png","1","legacy","0","relative","1","undefined","NA","blue","NA","undefined","1","undefined","undefined","blue","3","0","3","0","31","0","NA","31","31","31","31","31","0","31","31","31","31","0","4","NA","NA","31","0","0","0","0","0","0","0","31","10/09/20 17:02:43","Default description","yes","simont_HV.osexp","C:\Users\admin\Desktop\임채은\!MouseTracking_final","no","sans","no","18","no","black","no","yes","768","0","210","0","None","legacy","1","29","1","C:/Users/admin/Desktop/임채은/!MouseTracking_final/subject-4.csv","legacy","1","1","0","Kafkaesque Koffka","3.2.6","0","blue","space","NA","None","blue","start","space","space","NA","NA","NA","618","74511","NA","250","618","232","63108","36087","NA","NA","NA","2","legacy","1024","2","48000","-16","experiment","4","even","legacy","red","green","blue","yellow","2","64587","NA","NA","263551","1475","NA","262176","262680","262932","261943","147142","1478","263559","264559","262680","262932","223006","NA","NA","NA","261943","259093","NA","NA","NA","NA","NA","139098","261942","[262681.0, 262691.0, 262701.0, 262711.0, 262721.0, 262731.0, 262741.0, 262751.0, 262761.0, 262771.0, 262781.0, 262791.0, 262801.0, 262811.0, 262821.0, 262831.0, 262841.0, 262851.0, 262861.0, 262871.0, 262881.0, 262891.0, 262901.0, 262911.0, 262921.0, 262931.0]","[262932.0, 262942.0, 262952.0, 262962.0, 262972.0, 262982.0, 262992.0, 263002.0, 263012.0, 263022.0, 263032.0, 263042.0, 263052.0, 263062.0, 263072.0, 263082.0, 263092.0, 263102.0, 263112.0, 263122.0, 263132.0, 263142.0, 263152.0, 263162.0, 263172.0, 263182.0, 263192.0, 263202.0, 263212.0, 263222.0, 263232.0, 263242.0, 263252.0, 263262.0, 263271, 263281.0, 263291.0, 263301.0, 263311.0, 263321.0, 263331.0, 263341.0, 263351.0, 263361.0, 263371.0, 263381.0, 263391.0, 263401.0, 263411.0, 263421.0, 263431.0, 263441.0, 263451.0, 263461.0, 263471.0, 263481.0, 263491.0, 263501.0, 263511.0, 263521.0, 263531.0, 263541.0, 263550]","example_experiment","30","17141","30","yes","768","0","[0, 0, 0, 0, 0, 0, 0, 0, 0, 0, 0, 0, 0, 0, 0, 0, 0, 0, 0, 0, 0, 0, 0, 0, 0, -1]","[-1, -2, -3, -5, -9, -14, -19, -25, -32, -35, -38, -38, -36, -33, -28, -25, -24, -24, -24, -24, -24, -24, -24, -24, -24, -24, -24, -23, -23, -23, -23, -23, -23, -23, -23, -23, -23, -23, -23, -23, -23, -23, -22, -21, -21, -21, -20, -20, -19, -18, -18, -17, -16, -15, -15, -14, -14, -13, -13, -13, -13, -13, -13]","[0, 0, 0, 0, 0, 0, 0, 0, 0, 0, 0, 0, 0, 0, 0, 0, 0, 0, 0, 0, 0, 0, -1, -1, -3, -5]","[-6, -11, -21, -34, -52, -74, -97, -120, -147, -170, -194, -219, -243, -264, -279, -288, -292, -293, -293, -293, -293, -291, -289, -288, -287, -286, -286, -286, -286, -286, -286, -286, -286, -286, -286, -286, -286, -286, -286, -286, -286, -286, -287, -288, -289, -290, -290, -291, -292, -293, -294, -295, -296, -297, -297, -298, -299, -299, -299, -299, -299, -299, -299]"
"100","100","567.516129032","567.516129032","black","no","block1","1","legacy","legacy","w.png","r.png","w.png","w.png","1","legacy","0","relative","1","undefined","NA","red","NA","undefined","1","undefined","undefined","red","1","0","3","0","32","0","NA","32","32","32","32","32","0","32","32","32","32","0","4","NA","NA","32","0","0","0","0","0","0","0","32","10/09/20 17:02:43","Default description","yes","simont_HV.osexp","C:\Users\admin\Desktop\임채은\!MouseTracking_final","no","sans","no","18","no","black","no","yes","768","60","None","60","None","legacy","2","29","1","C:/Users/admin/Desktop/임채은/!MouseTracking_final/subject-4.csv","legacy","1","1","1","Kafkaesque Koffka","3.2.6","0","red","space","NA","None","red","start","space","space","NA","NA","NA","452","74511","NA","250","452","332","63108","36087","NA","NA","NA","2","legacy","1024","2","48000","-16","experiment","4","even","legacy","red","green","blue","yellow","1","64587","NA","NA","266214","1475","NA","265005","265509","265761","264672","147142","1478","266229","267229","265509","265761","223006","NA","NA","NA","264672","259093","NA","NA","NA","NA","NA","139098","264671","[265510.0, 265520.0, 265530.0, 265540.0, 265550.0, 265560.0, 265570.0, 265580.0, 265590.0, 265600.0, 265610.0, 265620.0, 265630.0, 265640.0, 265650.0, 265660.0, 265670.0, 265680.0, 265690.0, 265700.0, 265710.0, 265720.0, 265730.0, 265740.0, 265750.0, 265760.0]","[265761.0, 265771.0, 265781.0, 265791.0, 265801.0, 265811.0, 265821.0, 265831.0, 265841.0, 265851.0, 265861.0, 265871.0, 265881.0, 265891.0, 265901.0, 265911.0, 265921.0, 265931.0, 265941.0, 265951.0, 265961.0, 265971.0, 265981.0, 265991.0, 266001.0, 266011.0, 266021.0, 266031.0, 266041.0, 266051.0, 266061.0, 266071.0, 266081.0, 266091.0, 266101.0, 266111.0, 266121.0, 266131.0, 266141.0, 266151.0, 266161.0, 266171.0, 266181.0, 266191.0, 266201.0, 266211.0, 266213]","example_experiment","31","17593","31","yes","768","1","[0, 0, 0, 0, 0, 0, 0, 0, 0, 0, 0, 0, 0, 0, 0, 0, 0, 0, 0, 0, 0, 0, 0, 0, 0, 0]","[0, 0, 0, 0, 0, 0, 0, -1, -4, -8, -13, -18, -24, -32, -43, -58, -82, -117, -155, -186, -215, -240, -260, -274, -282, -285, -285, -285, -285, -285, -285, -289, -299, -311, -320, -326, -330, -330, -330, -330, -330, -330, -330, -330, -330, -329, -329]","[0, 0, 0, 0, 0, 0, 0, 0, 0, 0, 0, 0, 0, 0, 0, 0, 0, 0, 0, 0, 0, 0, 0, 0, 0, 0]","[0, 0, 0, 0, 0, 0, 0, 0, 0, 2, 3, 4, 5, 5, 5, 5, 5, 2, -2, -5, -6, -6, -6, -6, -6, -6, -6, -6, -6, -6, -6, -5, -1, 5, 11, 15, 19, 20, 21, 21, 21, 21, 19, 18, 18, 18, 18]"
"100","100","570.03125","570.03125","black","no","block1","2","legacy","legacy","w.png","w.png","w.png","y.png","2","legacy","0","relative","1","undefined","NA","yellow","NA","undefined","1","undefined","undefined","yellow","4","0","3","0","33","0","NA","33","33","33","33","33","0","33","33","33","33","0","4","NA","NA","33","0","0","0","0","0","0","0","33","10/09/20 17:02:43","Default description","yes","simont_HV.osexp","C:\Users\admin\Desktop\임채은\!MouseTracking_final","no","sans","no","18","no","black","no","yes","768","190","None","190","None","legacy","3","29","1","C:/Users/admin/Desktop/임채은/!MouseTracking_final/subject-4.csv","legacy","2","1","1","Kafkaesque Koffka","3.2.6","0","yellow","space","NA","None","yellow","start","space","space","NA","NA","NA","648","74511","NA","250","648","288","63108","36087","NA","NA","NA","2","legacy","1024","2","48000","-16","experiment","4","even","legacy","red","green","blue","yellow","2","64587","NA","NA","269046","1475","NA","267641","268145","268397","267350","147142","1478","269059","270059","268145","268397","223006","NA","NA","NA","267350","259093","NA","NA","NA","NA","NA","139098","267349","[268146.0, 268156.0, 268166.0, 268176.0, 268186.0, 268196.0, 268206.0, 268216.0, 268226.0, 268236.0, 268246.0, 268256.0, 268266.0, 268276.0, 268286.0, 268296.0, 268306.0, 268316.0, 268326.0, 268336.0, 268346.0, 268356.0, 268366.0, 268376.0, 268386.0, 268396.0]","[268397.0, 268407.0, 268417.0, 268427.0, 268437.0, 268447.0, 268457.0, 268467.0, 268477.0, 268487.0, 268497.0, 268507.0, 268517.0, 268527.0, 268537.0, 268547.0, 268557.0, 268567.0, 268577.0, 268587.0, 268597.0, 268607.0, 268617.0, 268627.0, 268637.0, 268647.0, 268657.0, 268667.0, 268677.0, 268687.0, 268697.0, 268707.0, 268717.0, 268727.0, 268737.0, 268747.0, 268757.0, 268767.0, 268777.0, 268787.0, 268797.0, 268807.0, 268817.0, 268827.0, 268837.0, 268847.0, 268857.0, 268867.0, 268877.0, 268887.0, 268897.0, 268907.0, 268917.0, 268927.0, 268937.0, 268947.0, 268957.0, 268967.0, 268977.0, 268987.0, 268997.0, 269007.0, 269017.0, 269027.0, 269037.0, 269045]","example_experiment","32","18241","32","yes","768","2","[0, 0, 0, 0, 0, 0, 0, 0, 0, 0, 0, 0, 0, 0, 0, 0, 0, 0, 0, 0, 0, 0, 0, 0, 0, 0]","[0, 0, 0, 0, 0, 0, 0, 0, 0, 0, 0, 0, 0, 0, 0, 0, 0, 0, 0, 0, -1, -2, -3, -4, -4, -1, 2, 3, 3, 2, -1, -1, 0, 3, 6, 9, 11, 12, 12, 12, 13, 13, 14, 15, 15, 15, 15, 15, 15, 15, 15, 15, 13, 8, 3, -2, -5, -8, -11, -14, -15, -16, -16, -16, -16, -16]","[0, 0, 0, 0, 0, 0, 0, 0, 0, 0, 0, 0, 0, 0, 0, 0, 0, 0, 0, 0, 0, 0, 0, 0, 0, 0]","[0, 0, 0, 0, 0, 0, 0, 0, 0, 0, 0, 0, 0, 0, 0, 0, 0, 0, 0, 0, 5, 11, 19, 28, 38, 53, 76, 103, 131, 159, 182, 205, 225, 241, 250, 255, 258, 258, 258, 258, 258, 258, 258, 258, 258, 258, 258, 260, 261, 262, 264, 268, 273, 283, 293, 300, 308, 315, 324, 332, 336, 337, 339, 339, 339, 339]"
"100","100","567.151515152","567.151515152","black","no","block1","3","legacy","legacy","w.png","w.png","g.png","w.png","2","legacy","0","relative","1","undefined","NA","green","NA","undefined","1","undefined","undefined","green","2","0","3","0","34","0","NA","34","34","34","34","34","0","34","34","34","34","0","4","NA","NA","34","0","0","0","0","0","0","0","34","10/09/20 17:02:43","Default description","yes","simont_HV.osexp","C:\Users\admin\Desktop\임채은\!MouseTracking_final","no","sans","no","18","no","black","no","yes","768","40","None","40","None","legacy","4","29","2","C:/Users/admin/Desktop/임채은/!MouseTracking_final/subject-4.csv","legacy","1","2","1","Kafkaesque Koffka","3.2.6","0","green","space","NA","None","green","start","space","space","NA","NA","NA","475","74511","NA","250","475","229","63108","36087","NA","NA","NA","2","legacy","1024","2","48000","-16","experiment","4","even","legacy","red","green","blue","yellow","1","64587","NA","NA","271640","1475","NA","270408","270912","271164","270177","147142","1478","271649","272649","270912","271164","223006","NA","NA","NA","270176","259093","NA","NA","NA","NA","NA","139098","270175","[270913.0, 270923.0, 270933.0, 270943.0, 270953.0, 270963.0, 270973.0, 270983.0, 270993.0, 271003.0, 271013.0, 271023.0, 271033.0, 271043.0, 271053.0, 271063.0, 271073.0, 271083.0, 271093.0, 271103.0, 271113.0, 271123.0, 271133.0, 271143.0, 271153.0, 271163.0]","[271164.0, 271174.0, 271184.0, 271194.0, 271204.0, 271214.0, 271224.0, 271234.0, 271244.0, 271254.0, 271264.0, 271274.0, 271284.0, 271294.0, 271304.0, 271314.0, 271324.0, 271334.0, 271344.0, 271354.0, 271364.0, 271374.0, 271384.0, 271394.0, 271404.0, 271414.0, 271424.0, 271434.0, 271444.0, 271454.0, 271464.0, 271474.0, 271484.0, 271494.0, 271504.0, 271514.0, 271524.0, 271534.0, 271544.0, 271554.0, 271564.0, 271574.0, 271584.0, 271594.0, 271604.0, 271614.0, 271624.0, 271634.0, 271639]","example_experiment","33","18716","33","yes","768","1","[0, 0, 0, 0, 0, 0, 0, 0, 0, 0, 0, 0, 0, 0, 0, 0, 0, 0, 0, 0, 0, 0, 0, 0, 0, 0]","[0, 0, 0, 0, 0, 3, 13, 26, 43, 64, 86, 114, 140, 166, 192, 216, 233, 248, 260, 266, 271, 274, 275, 275, 275, 275, 275, 276, 279, 282, 286, 290, 291, 291, 291, 294, 297, 301, 304, 308, 313, 318, 322, 323, 323, 323, 325, 325, 325]","[0, 0, 0, 0, 0, 0, 0, 0, 0, 0, 0, 0, 0, 0, 0, 0, 0, 0, 0, 0, 0, 0, 0, 0, 0, 0]","[0, 0, 0, 0, 0, 0, 0, 0, 0, 0, 0, 0, 0, 0, 0, 0, 0, 0, 0, 0, 0, 0, 0, 0, 0, 0, -1, -2, -3, -4, -5, -6, -7, -7, -7, -7, -7, -7, -7, -7, -7, -7, -7, -7, -7, -7, -7, -7, -7]"
"100","100","567.676470588","567.676470588","black","no","block1","2","legacy","legacy","w.png","w.png","w.png","y.png","2","legacy","0","relative","1","undefined","NA","yellow","NA","undefined","1","undefined","undefined","yellow","4","0","3","0","35","0","NA","35","35","35","35","35","0","35","35","35","35","0","4","NA","NA","35","0","0","0","0","0","0","0","35","10/09/20 17:02:43","Default description","yes","simont_HV.osexp","C:\Users\admin\Desktop\임채은\!MouseTracking_final","no","sans","no","18","no","black","no","yes","768","60","None","60","None","legacy","5","29","1","C:/Users/admin/Desktop/임채은/!MouseTracking_final/subject-4.csv","legacy","2","1","2","Kafkaesque Koffka","3.2.6","0","yellow","space","NA","None","yellow","start","space","space","NA","NA","NA","585","74511","NA","250","585","345","63108","36087","NA","NA","NA","2","legacy","1024","2","48000","-16","experiment","4","even","legacy","red","green","blue","yellow","2","64587","NA","NA","274453","1475","NA","273110","273615","273867","272764","147142","1478","274459","275459","273615","273867","223006","NA","NA","NA","272764","259093","NA","NA","NA","NA","NA","139098","272763","[273616.0, 273626.0, 273636.0, 273646.0, 273656.0, 273666.0, 273676.0, 273686.0, 273696.0, 273706.0, 273716.0, 273726.0, 273736.0, 273746.0, 273756.0, 273766.0, 273776.0, 273786.0, 273796.0, 273806.0, 273816.0, 273826.0, 273836.0, 273846.0, 273856.0, 273866.0]","[273867.0, 273877.0, 273887.0, 273897.0, 273907.0, 273917.0, 273927.0, 273937.0, 273947.0, 273957.0, 273967.0, 273977.0, 273987.0, 273997.0, 274007.0, 274017.0, 274027.0, 274037.0, 274047.0, 274057.0, 274067.0, 274077.0, 274087.0, 274097.0, 274107.0, 274117.0, 274127.0, 274137.0, 274147.0, 274157.0, 274167.0, 274177.0, 274187.0, 274197.0, 274207.0, 274217.0, 274227.0, 274237.0, 274247.0, 274257.0, 274267.0, 274277.0, 274287.0, 274297.0, 274307.0, 274317.0, 274327.0, 274337.0, 274347.0, 274357.0, 274367.0, 274377.0, 274387.0, 274397.0, 274407.0, 274417.0, 274427.0, 274437.0, 274447.0, 274452]","example_experiment","34","19301","34","yes","768","4","[0, 0, 0, 0, 0, 0, 0, 0, 0, 0, 0, 0, 0, 0, 0, 0, 0, 0, 0, 0, 0, 0, 0, 0, 0, 0]","[0, 0, 0, 0, 0, 0, 0, 0, 0, 1, 2, 5, 8, 10, 10, 10, 8, 7, 6, 6, 6, 6, 6, 6, 6, 6, 6, 6, 6, 6, 6, 3, -3, -11, -17, -19, -19, -18, -14, -10, -8, -7, -7, -7, -8, -11, -13, -15, -15, -15, -15, -15, -15, -15, -15, -15, -15, -15, -14, -14]","[0, 0, 0, 0, 0, 0, 0, 0, 0, 0, 0, 0, 0, 0, 0, 0, 0, 0, 0, 0, 0, 0, 0, 0, 0, 0]","[0, 0, 0, 0, 0, 0, 0, -1, -3, -7, -13, -25, -42, -62, -85, -107, -134, -157, -173, -182, -185, -185, -185, -185, -183, -176, -161, -136, -99, -50, 5, 60, 120, 181, 236, 289, 331, 356, 371, 376, 376, 376, 374, 369, 363, 357, 352, 347, 343, 340, 339, 338, 338, 338, 336, 335, 335, 335, 334, 334]"
