"acc","accuracy","average_response_time","avg_rt","background","bidi","block","btwC","canvas_backend","clock_backend","colD","colL","colR","colU","color","color_backend","compensation","coordinates","correct","correct_answerins","correct_button_get_response_bef","correct_button_get_response_pos","correct_button_get_start_click","correct_get_response_bef","correct_get_response_pos","correct_get_start_click","correct_instructions","correct_resp","correctkey","count_answerins","count_break1","count_break3","count_correct_f","count_experiment","count_feedback","count_fixation500s","count_get_response_bef","count_get_response_pos","count_get_start_click","count_incorrect_f","count_instructions","count_iti1000","count_logger","count_present_stimulus","count_present_stimulus2","count_start_gogo","count_start_gogo_1","count_start_gogo_1_1","count_start_gogo_1_2","count_start_screen","count_stimuli1","count_stimuli2","count_stimuli3","count_stimuli4","count_stimuli5","count_stimuli6","count_stimuli_prac","count_trial","datetime","description","disable_garbage_collection","experiment_file","experiment_path","font_bold","font_family","font_italic","font_size","font_underline","foreground","form_clicks","fullscreen","height","initiation_time","initiation_time_get_response_bef","initiation_time_get_response_pos","initiation_time_get_start_click","keyboard_backend","live_row","live_row_stimuli_prac","loc","logfile","mouse_backend","n0","n1","n2","opensesame_codename","opensesame_version","repeat_cycle","response","response_answerins","response_feedback","response_get_response_bef","response_get_response_pos","response_get_start_click","response_instructions","response_start_gogo","response_start_gogo_1","response_start_gogo_1_1","response_start_gogo_1_2","response_time","response_time_answerins","response_time_feedback","response_time_get_response_bef","response_time_get_response_pos","response_time_get_start_click","response_time_instructions","response_time_start_gogo","response_time_start_gogo_1","response_time_start_gogo_1_1","response_time_start_gogo_1_2","round_decimals","sampler_backend","sound_buf_size","sound_channels","sound_freq","sound_sample_size","start","subject_nr","subject_parity","synth_backend","tar1L","tar2R","tar3U","tar4D","taskType","time_answerins","time_break1","time_break3","time_correct_f","time_experiment","time_feedback","time_fixation500s","time_get_response_bef","time_get_response_pos","time_get_start_click","time_incorrect_f","time_instructions","time_iti1000","time_logger","time_present_stimulus","time_present_stimulus2","time_start_gogo","time_start_gogo_1","time_start_gogo_1_1","time_start_gogo_1_2","time_start_screen","time_stimuli1","time_stimuli2","time_stimuli3","time_stimuli4","time_stimuli5","time_stimuli6","time_stimuli_prac","time_trial","timestamps_get_response_bef","timestamps_get_response_pos","title","total_correct","total_response_time","total_responses","uniform_coordinates","width","withC","xpos_get_response_bef","xpos_get_response_pos","ypos_get_response_bef","ypos_get_response_pos"
"undefined","undefined","undefined","undefined","black","no","prac","0","legacy","legacy","w.png","w.png","r.png","w.png","1","legacy","0","relative","undefined","undefined","NA","NA","NA","NA","NA","undefined","undefined","red","1","0","3","0","0","0","NA","0","0","0","0","0","0","0","0","0","0","0","4","NA","NA","0","0","0","0","0","0","0","0","0","12/24/20 10:02:09","Default description","yes","simont_HV.osexp","C:\Users\admin\Desktop\임채은\!MouseTracking_final","no","sans","no","18","no","black","no","yes","768","0","NA","NA","0","legacy","0","0","2","C:/Users/admin/Desktop/임채은/!MouseTracking_final/subject-42.csv","legacy","2","0","0","Kafkaesque Koffka","3.2.6","0","None","space","NA","NA","NA","None","space","NA","NA","NA","NA","1500","109586","NA","NA","NA","1500","5451","NA","NA","NA","NA","2","legacy","1024","2","48000","-16","experiment","42","even","legacy","red","green","blue","yellow","1","6988","NA","NA","NA","1531","NA","NA","NA","NA","116640","118145","1536","118286","119286","NA","NA","NA","NA","NA","NA","116640","NA","NA","NA","NA","NA","NA","116574","116639","NA","NA","example_experiment","0","0","0","yes","768","0","NA","NA","NA","NA"
"undefined","undefined","undefined","undefined","black","no","prac","0","legacy","legacy","w.png","w.png","w.png","b.png","1","legacy","0","relative","undefined","undefined","NA","NA","NA","NA","NA","undefined","undefined","blue","3","0","3","0","1","0","NA","1","1","1","1","1","0","1","1","1","1","0","4","NA","NA","1","0","0","0","0","0","0","0","1","12/24/20 10:02:09","Default description","yes","simont_HV.osexp","C:\Users\admin\Desktop\임채은\!MouseTracking_final","no","sans","no","18","no","black","no","yes","768","None","NA","NA","None","legacy","1","1","1","C:/Users/admin/Desktop/임채은/!MouseTracking_final/subject-42.csv","legacy","1","2","0","Kafkaesque Koffka","3.2.6","0","None","space","NA","NA","NA","None","space","NA","NA","NA","NA","1500","109586","NA","NA","NA","1500","5451","NA","NA","NA","NA","2","legacy","1024","2","48000","-16","experiment","42","even","legacy","red","green","blue","yellow","2","6988","NA","NA","NA","1531","NA","NA","NA","NA","119419","120920","1536","121056","122056","NA","NA","NA","NA","NA","NA","119419","NA","NA","NA","NA","NA","NA","116574","119418","NA","NA","example_experiment","0","0","0","yes","768","0","NA","NA","NA","NA"
"100","100","1460","1460","black","no","prac","2","legacy","legacy","w.png","g.png","w.png","w.png","2","legacy","0","relative","1","undefined","NA","green","NA","undefined","1","undefined","undefined","green","2","0","3","0","2","0","NA","2","2","2","2","2","0","2","2","2","2","0","4","NA","NA","2","0","0","0","0","0","0","0","2","12/24/20 10:02:09","Default description","yes","simont_HV.osexp","C:\Users\admin\Desktop\임채은\!MouseTracking_final","no","sans","no","18","no","black","no","yes","768","40","0","40","None","legacy","2","2","1","C:/Users/admin/Desktop/임채은/!MouseTracking_final/subject-42.csv","legacy","2","1","2","Kafkaesque Koffka","3.2.6","0","green","space","NA","None","green","start","space","NA","NA","NA","NA","1460","109586","NA","250","1460","418","5451","NA","NA","NA","NA","2","legacy","1024","2","48000","-16","experiment","42","even","legacy","red","green","blue","yellow","1","6988","NA","NA","124809","1531","NA","122593","123097","123349","122174","120920","1536","124816","125816","123097","123349","NA","NA","NA","NA","122173","NA","NA","NA","NA","NA","NA","116574","122172","[123098.0, 123108.0, 123118.0, 123128.0, 123138.0, 123148.0, 123158.0, 123168.0, 123178.0, 123188.0, 123198.0, 123208.0, 123218.0, 123228.0, 123238.0, 123248.0, 123258.0, 123268.0, 123278.0, 123288.0, 123298.0, 123308.0, 123318.0, 123328.0, 123338.0, 123348.0]","[123349.0, 123359.0, 123369.0, 123379.0, 123389.0, 123399.0, 123409.0, 123419.0, 123429.0, 123439.0, 123449.0, 123459.0, 123469.0, 123479.0, 123489.0, 123499.0, 123509.0, 123519.0, 123529.0, 123539.0, 123549.0, 123559.0, 123569.0, 123579.0, 123589.0, 123599.0, 123609.0, 123619.0, 123629.0, 123639.0, 123649.0, 123659.0, 123669.0, 123679.0, 123689.0, 123699.0, 123709.0, 123719.0, 123729.0, 123739.0, 123749.0, 123759.0, 123769.0, 123779.0, 123789.0, 123799.0, 123809.0, 123819.0, 123829.0, 123839.0, 123849.0, 123859.0, 123869.0, 123879.0, 123889.0, 123899.0, 123909.0, 123919.0, 123929.0, 123939.0, 123949.0, 123959.0, 123969.0, 123979.0, 123989.0, 123999.0, 124009.0, 124019.0, 124029.0, 124039.0, 124049.0, 124059.0, 124069.0, 124079.0, 124089.0, 124099.0, 124109.0, 124119.0, 124129.0, 124139.0, 124149.0, 124159.0, 124169.0, 124179.0, 124189.0, 124199.0, 124209.0, 124219.0, 124229.0, 124239.0, 124249.0, 124259.0, 124269.0, 124279.0, 124289.0, 124299.0, 124309.0, 124319.0, 124329.0, 124339.0, 124349.0, 124359.0, 124369.0, 124379.0, 124389.0, 124399.0, 124409.0, 124419.0, 124429.0, 124439.0, 124449.0, 124459.0, 124469.0, 124479.0, 124489.0, 124499.0, 124509.0, 124519.0, 124529.0, 124539.0, 124549.0, 124559.0, 124569.0, 124579.0, 124589.0, 124599.0, 124609.0, 124619.0, 124629.0, 124639.0, 124649.0, 124659.0, 124669.0, 124679.0, 124689.0, 124699.0, 124709.0, 124719.0, 124729.0, 124739.0, 124749.0, 124759.0, 124769.0, 124779.0, 124789.0, 124799.0, 124809.0, 124809]","example_experiment","1","1460","1","yes","768","4","[0, -5, -11, -17, -22, -26, -29, -31, -33, -34, -35, -35, -36, -36, -36, -36, -36, -36, -36, -36, -36, -36, -36, -36, -36, -36]","[-36, -36, -36, -36, -36, -37, -38, -40, -43, -45, -47, -50, -52, -55, -57, -59, -60, -61, -61, -62, -62, -62, -62, -62, -62, -62, -62, -62, -63, -63, -63, -63, -63, -63, -63, -63, -63, -63, -63, -63, -63, -63, -63, -63, -63, -63, -63, -63, -63, -63, -63, -63, -63, -63, -63, -63, -63, -63, -63, -63, -63, -63, -62, -60, -57, -53, -48, -44, -38, -28, -17, -2, 17, 38, 63, 93, 122, 151, 177, 197, 211, 217, 217, 217, 216, 213, 209, 206, 203, 200, 197, 194, 191, 188, 186, 184, 183, 183, 183, 183, 186, 192, 197, 202, 208, 214, 218, 222, 224, 226, 228, 229, 231, 231, 232, 232, 234, 234, 235, 237, 238, 242, 248, 256, 266, 275, 282, 288, 291, 292, 293, 294, 295, 298, 301, 306, 309, 311, 313, 313, 313, 313, 313, 313, 313, 313, 313, 313]","[0, 0, -1, -2, -2, -2, -2, -3, -3, -3, -4, -4, -4, -4, -4, -4, -4, -4, -4, -4, -4, -4, -4, -4, -4, -4]","[-4, -4, -4, -4, -4, -4, -4, -5, -5, -5, -5, -5, -6, -6, -6, -6, -6, -6, -6, -6, -6, -6, -6, -6, -6, -6, -6, -6, -6, -6, -6, -6, -6, -6, -6, -6, -6, -6, -6, -6, -6, -6, -6, -6, -6, -6, -6, -6, -6, -6, -6, -6, -6, -6, -6, -6, -6, -6, -6, -6, -6, -6, -6, -6, -7, -9, -10, -11, -13, -13, -13, -13, -12, -11, -11, -11, -13, -16, -20, -22, -24, -25, -25, -25, -25, -25, -23, -21, -19, -17, -15, -14, -14, -13, -12, -12, -12, -12, -12, -13, -14, -16, -18, -20, -21, -24, -26, -27, -28, -29, -30, -31, -31, -31, -31, -31, -31, -31, -31, -31, -29, -25, -20, -14, -7, -2, 3, 5, 7, 8, 8, 8, 10, 10, 11, 12, 12, 12, 12, 12, 12, 12, 12, 12, 12, 12, 12, 12]"
"100","100","1173.5","1173.5","black","no","prac","3","legacy","legacy","w.png","w.png","w.png","b.png","1","legacy","0","relative","1","undefined","NA","blue","NA","undefined","1","undefined","undefined","blue","3","0","3","0","3","0","NA","3","3","3","3","3","0","3","3","3","3","0","4","NA","NA","3","0","0","0","0","0","0","0","3","12/24/20 10:02:09","Default description","yes","simont_HV.osexp","C:\Users\admin\Desktop\임채은\!MouseTracking_final","no","sans","no","18","no","black","no","yes","768","290","None","290","None","legacy","3","3","1","C:/Users/admin/Desktop/임채은/!MouseTracking_final/subject-42.csv","legacy","1","2","1","Kafkaesque Koffka","3.2.6","0","blue","space","NA","None","blue","start","space","NA","NA","NA","NA","887","109586","NA","250","887","475","5451","NA","NA","NA","NA","2","legacy","1024","2","48000","-16","experiment","42","even","legacy","red","green","blue","yellow","2","6988","NA","NA","128063","1531","NA","126420","126924","127176","125944","120920","1536","128076","129076","126924","127176","NA","NA","NA","NA","125944","NA","NA","NA","NA","NA","NA","116574","125942","[126925.0, 126935.0, 126945.0, 126955.0, 126965.0, 126975.0, 126985.0, 126995.0, 127005.0, 127015.0, 127025.0, 127035.0, 127045.0, 127055.0, 127065.0, 127075.0, 127085.0, 127095.0, 127105.0, 127115.0, 127125.0, 127135.0, 127145.0, 127155.0, 127165.0, 127175.0]","[127176.0, 127186.0, 127196.0, 127206.0, 127216.0, 127226.0, 127236.0, 127246.0, 127256.0, 127266.0, 127276.0, 127286.0, 127296.0, 127306.0, 127316.0, 127326.0, 127336.0, 127346.0, 127356.0, 127366.0, 127376.0, 127386.0, 127396.0, 127406.0, 127416.0, 127426.0, 127436.0, 127446.0, 127456.0, 127466.0, 127476.0, 127486.0, 127496.0, 127506.0, 127516.0, 127526.0, 127536.0, 127546.0, 127556.0, 127566.0, 127576.0, 127586.0, 127596.0, 127606.0, 127616.0, 127626.0, 127636.0, 127646.0, 127656.0, 127666.0, 127676.0, 127686.0, 127696.0, 127706.0, 127716.0, 127726.0, 127736.0, 127746.0, 127756.0, 127766.0, 127776.0, 127786.0, 127796.0, 127806.0, 127816.0, 127826.0, 127836.0, 127846.0, 127856.0, 127866.0, 127876.0, 127886.0, 127896.0, 127906.0, 127916.0, 127926.0, 127936.0, 127946.0, 127956.0, 127966.0, 127976.0, 127986.0, 127996.0, 128006.0, 128016.0, 128026.0, 128036.0, 128046.0, 128056.0, 128063]","example_experiment","2","2347","2","yes","768","1","[0, 0, 0, 0, 0, 0, 0, 0, 0, 0, 0, 0, 0, 0, 0, 0, 0, 0, 0, 0, 0, 0, 0, 0, 0, 0]","[0, 0, 0, 0, 0, 0, 0, 0, 0, 0, 0, 0, 0, 0, 0, 0, 0, 0, 0, 0, 0, 0, 0, 0, 0, 0, 0, 0, 0, 0, 0, 0, 0, 1, 2, 3, 4, 6, 6, 6, 7, 7, 7, 8, 8, 8, 8, 8, 8, 8, 7, 6, 5, 4, 4, 3, 3, 2, 2, 1, 0, 0, -1, -1, -1, -1, -1, 0, 1, 2, 2, 3, 3, 3, 3, 3, 3, 3, 3, 3, 3, 3, 3, 3, 3, 3, 3, 3, 3, 3]","[0, 0, 0, 0, 0, 0, 0, 0, 0, 0, 0, 0, 0, 0, 0, 0, 0, 0, 0, 0, 0, 0, 0, 0, 0, 0]","[0, 0, 0, 0, 0, 0, 0, 0, 0, 0, 0, 0, 0, 0, 0, 0, 0, 0, 0, 0, 0, 0, 0, 0, 0, 0, 0, 0, 0, 0, -4, -9, -14, -22, -29, -39, -47, -58, -68, -79, -91, -100, -111, -121, -131, -140, -149, -158, -168, -174, -180, -185, -189, -192, -196, -199, -202, -205, -208, -210, -213, -215, -219, -223, -227, -231, -236, -241, -246, -252, -256, -262, -266, -271, -276, -280, -285, -290, -295, -299, -302, -305, -309, -311, -312, -313, -314, -314, -314, -314]"
"100","100","1014","1014","black","no","prac","1","legacy","legacy","w.png","w.png","g.png","w.png","2","legacy","0","relative","1","undefined","NA","green","NA","undefined","1","undefined","undefined","green","2","0","3","0","4","0","NA","4","4","4","4","4","0","4","4","4","4","0","4","NA","NA","4","0","0","0","0","0","0","0","4","12/24/20 10:02:09","Default description","yes","simont_HV.osexp","C:\Users\admin\Desktop\임채은\!MouseTracking_final","no","sans","no","18","no","black","no","yes","768","180","None","180","None","legacy","4","4","2","C:/Users/admin/Desktop/임채은/!MouseTracking_final/subject-42.csv","legacy","1","1","2","Kafkaesque Koffka","3.2.6","0","green","space","NA","None","green","start","space","NA","NA","NA","NA","695","109586","NA","250","695","584","5451","NA","NA","NA","NA","2","legacy","1024","2","48000","-16","experiment","42","even","legacy","red","green","blue","yellow","1","6988","NA","NA","131219","1531","NA","129768","130272","130524","129183","120920","1536","131236","132236","130272","130524","NA","NA","NA","NA","129183","NA","NA","NA","NA","NA","NA","116574","129182","[130273.0, 130283.0, 130293.0, 130303.0, 130313.0, 130323.0, 130333.0, 130343.0, 130353.0, 130363.0, 130373.0, 130383.0, 130393.0, 130403.0, 130413.0, 130423.0, 130433.0, 130443.0, 130453.0, 130463.0, 130473.0, 130483.0, 130493.0, 130503.0, 130513.0, 130523.0]","[130524.0, 130534.0, 130544.0, 130554.0, 130564.0, 130574.0, 130584.0, 130594.0, 130604.0, 130614.0, 130624.0, 130634.0, 130644.0, 130654.0, 130664.0, 130674.0, 130684.0, 130694.0, 130704.0, 130714.0, 130724.0, 130734.0, 130744.0, 130754.0, 130764.0, 130774.0, 130784.0, 130794.0, 130804.0, 130814.0, 130824.0, 130834.0, 130844.0, 130854.0, 130864.0, 130874.0, 130884.0, 130894.0, 130904.0, 130914.0, 130924.0, 130934.0, 130944.0, 130954.0, 130964.0, 130974.0, 130984.0, 130994.0, 131004.0, 131014.0, 131024.0, 131034.0, 131044.0, 131054.0, 131064.0, 131074.0, 131084.0, 131094.0, 131104.0, 131114.0, 131124.0, 131134.0, 131144.0, 131154.0, 131164.0, 131174.0, 131184.0, 131194.0, 131204.0, 131214.0, 131219]","example_experiment","3","3042","3","yes","768","3","[0, 0, 0, 0, 0, 0, 0, 0, 0, 0, 0, 0, 0, 0, 0, 0, 0, 0, 0, 0, 0, 0, 0, 0, 0, 0]","[0, 0, 0, 0, 0, 0, 0, 0, 0, 0, 0, 0, 0, 0, 0, 0, 0, 0, 0, 4, 12, 21, 33, 43, 54, 64, 74, 88, 105, 119, 135, 148, 162, 174, 184, 192, 198, 203, 206, 206, 206, 206, 206, 207, 209, 213, 216, 220, 224, 228, 233, 238, 244, 252, 260, 268, 276, 282, 286, 289, 292, 295, 299, 302, 303, 304, 304, 304, 304, 304, 304]","[0, 0, 0, 0, 0, 0, 0, 0, 0, 0, 0, 0, 0, 0, 0, 0, 0, 0, 0, 0, 0, 0, 0, 0, 0, 0]","[0, 0, 0, 0, 0, 0, 0, 0, 0, 0, 0, 0, 0, 0, 0, 0, 0, 0, 0, 0, -2, -3, -5, -7, -10, -14, -17, -20, -23, -24, -26, -28, -29, -31, -32, -33, -34, -34, -34, -34, -34, -34, -34, -34, -32, -29, -27, -24, -22, -20, -18, -15, -12, -9, -6, -3, 0, 2, 3, 4, 4, 5, 6, 7, 7, 7, 7, 7, 7, 7, 7]"
"100","100","953.75","953.75","black","no","prac","1","legacy","legacy","y.png","w.png","w.png","w.png","2","legacy","0","relative","1","undefined","NA","yellow","NA","undefined","1","undefined","undefined","yellow","4","0","3","0","5","0","NA","5","5","5","5","5","0","5","5","5","5","0","4","NA","NA","5","0","0","0","0","0","0","0","5","12/24/20 10:02:09","Default description","yes","simont_HV.osexp","C:\Users\admin\Desktop\임채은\!MouseTracking_final","no","sans","no","18","no","black","no","yes","768","150","70","150","0","legacy","5","5","2","C:/Users/admin/Desktop/임채은/!MouseTracking_final/subject-42.csv","legacy","1","1","1","Kafkaesque Koffka","3.2.6","0","yellow","space","NA","None","yellow","start","space","NA","NA","NA","NA","773","109586","NA","250","773","491","5451","NA","NA","NA","NA","2","legacy","1024","2","48000","-16","experiment","42","even","legacy","red","green","blue","yellow","2","6988","NA","NA","134371","1531","NA","132842","133346","133598","132350","120920","1536","134386","135386","133346","133598","NA","NA","NA","NA","132350","NA","NA","NA","NA","NA","NA","116574","132348","[133347.0, 133357.0, 133367.0, 133377.0, 133387.0, 133397.0, 133407.0, 133417.0, 133427.0, 133437.0, 133447.0, 133457.0, 133467.0, 133477.0, 133487.0, 133497.0, 133507.0, 133517.0, 133527.0, 133537.0, 133547.0, 133557.0, 133567.0, 133577.0, 133587.0, 133597.0]","[133598.0, 133608.0, 133618.0, 133628.0, 133638.0, 133648.0, 133658.0, 133668.0, 133678.0, 133688.0, 133698.0, 133708.0, 133718.0, 133728.0, 133738.0, 133748.0, 133758.0, 133768.0, 133778.0, 133788.0, 133798.0, 133808.0, 133818.0, 133828.0, 133838.0, 133848.0, 133858.0, 133868.0, 133878.0, 133888.0, 133898.0, 133908.0, 133918.0, 133928.0, 133938.0, 133948.0, 133958.0, 133968.0, 133978.0, 133988.0, 133998.0, 134008.0, 134018.0, 134028.0, 134038.0, 134048.0, 134058.0, 134068.0, 134078.0, 134088.0, 134098.0, 134108.0, 134118.0, 134128.0, 134138.0, 134148.0, 134158.0, 134168.0, 134178.0, 134188.0, 134198.0, 134208.0, 134218.0, 134228.0, 134238.0, 134248.0, 134258.0, 134268.0, 134278.0, 134288.0, 134298.0, 134308.0, 134318.0, 134328.0, 134338.0, 134348.0, 134358.0, 134368.0, 134371]","example_experiment","4","3815","4","yes","768","1","[0, 0, 0, 0, 0, 0, 0, 0, 0, 0, 0, 0, 0, 0, 0, 0, 0, 0, 0, 0, 0, 0, 0, 0, 0, 0]","[0, 0, 0, 0, 0, 0, 0, 0, 0, 0, 0, 0, 0, 0, 0, 0, 0, -2, -2, -3, -4, -4, -5, -6, -7, -8, -8, -8, -8, -8, -7, -5, -3, -2, 1, 3, 5, 8, 10, 12, 14, 16, 17, 18, 18, 18, 18, 18, 18, 17, 16, 15, 14, 13, 13, 12, 12, 11, 11, 10, 9, 8, 7, 6, 5, 3, 2, 1, 0, -1, -1, -2, -2, -3, -3, -3, -3, -3, -3]","[0, 0, 0, 0, 0, 0, 0, 0, -1, -1, -1, -1, -1, -1, -1, -1, -1, -1, -1, -1, -1, -1, -1, -1, -1, -1]","[-1, -1, -1, -1, -1, -1, -1, -1, -1, -1, -1, -1, -1, -1, -1, -1, 0, 4, 8, 13, 19, 27, 34, 42, 49, 57, 65, 74, 85, 95, 106, 117, 130, 141, 153, 166, 178, 190, 202, 213, 221, 228, 235, 240, 244, 247, 251, 254, 256, 259, 262, 264, 266, 267, 268, 269, 270, 270, 272, 273, 275, 278, 281, 284, 287, 291, 293, 296, 299, 301, 304, 306, 308, 310, 311, 311, 311, 311, 311]"
"100","100","869.4","869.4","black","no","prac","2","legacy","legacy","w.png","w.png","r.png","w.png","1","legacy","0","relative","1","undefined","NA","red","NA","undefined","1","undefined","undefined","red","1","0","3","0","6","0","NA","6","6","6","6","6","0","6","6","6","6","0","4","NA","NA","6","0","0","0","0","0","0","0","6","12/24/20 10:02:09","Default description","yes","simont_HV.osexp","C:\Users\admin\Desktop\임채은\!MouseTracking_final","no","sans","no","18","no","black","no","yes","768","10","None","10","None","legacy","6","6","2","C:/Users/admin/Desktop/임채은/!MouseTracking_final/subject-42.csv","legacy","2","1","1","Kafkaesque Koffka","3.2.6","0","red","space","NA","None","red","start","space","NA","NA","NA","NA","532","109586","NA","250","532","271","5451","NA","NA","NA","NA","2","legacy","1024","2","48000","-16","experiment","42","even","legacy","red","green","blue","yellow","1","6988","NA","NA","137088","1531","NA","135802","136304","136556","135530","120920","1536","137096","138096","136304","136556","NA","NA","NA","NA","135530","NA","NA","NA","NA","NA","NA","116574","135529","[136305.0, 136315.0, 136325.0, 136335.0, 136345.0, 136355.0, 136365.0, 136375.0, 136385.0, 136395.0, 136405.0, 136415.0, 136425.0, 136435.0, 136445.0, 136455.0, 136465.0, 136475.0, 136485.0, 136495.0, 136505.0, 136515.0, 136525.0, 136535.0, 136545.0, 136555.0]","[136556.0, 136566.0, 136576.0, 136586.0, 136596.0, 136606.0, 136616.0, 136626.0, 136636.0, 136646.0, 136656.0, 136666.0, 136676.0, 136686.0, 136696.0, 136706.0, 136716.0, 136726.0, 136736.0, 136746.0, 136756.0, 136766.0, 136776.0, 136786.0, 136796.0, 136806.0, 136816.0, 136826.0, 136836.0, 136846.0, 136856.0, 136866.0, 136876.0, 136886.0, 136896.0, 136906.0, 136916.0, 136926.0, 136936.0, 136946.0, 136956.0, 136966.0, 136976.0, 136986.0, 136996.0, 137006.0, 137016.0, 137026.0, 137036.0, 137046.0, 137056.0, 137066.0, 137076.0, 137086.0, 137088]","example_experiment","5","4347","5","yes","768","2","[0, 0, 0, 0, 0, 0, 0, 0, 0, 0, 0, 0, 0, 0, 0, 0, 0, 0, 0, 0, 0, 0, 0, 0, 0, 0]","[0, 0, 2, 10, 19, 28, 36, 43, 49, 54, 56, 56, 55, 48, 31, 3, -29, -63, -97, -133, -162, -193, -220, -243, -265, -281, -293, -301, -305, -307, -307, -308, -308, -308, -308, -308, -308, -307, -305, -304, -303, -302, -301, -300, -297, -295, -292, -290, -289, -289, -288, -288, -288, -288, -288]","[0, 0, 0, 0, 0, 0, 0, 0, 0, 0, 0, 0, 0, 0, 0, 0, 0, 0, 0, 0, 0, 0, 0, 0, 0, 0]","[0, 0, 0, 0, 0, 0, -1, -1, -2, -3, -4, -4, -4, -5, -6, -7, -7, -7, -5, -1, 3, 8, 12, 16, 20, 22, 24, 25, 25, 25, 25, 25, 25, 25, 25, 25, 25, 25, 24, 22, 20, 18, 15, 11, 7, 3, -2, -6, -10, -13, -15, -16, -17, -17, -17]"
"100","100","827.166666667","827.166666667","black","no","prac","4","legacy","legacy","w.png","w.png","w.png","y.png","2","legacy","0","relative","1","undefined","NA","yellow","NA","undefined","1","undefined","undefined","yellow","4","0","3","0","7","0","NA","7","7","7","7","7","0","7","7","7","7","0","4","NA","NA","7","0","0","0","0","0","0","0","7","12/24/20 10:02:09","Default description","yes","simont_HV.osexp","C:\Users\admin\Desktop\임채은\!MouseTracking_final","no","sans","no","18","no","black","no","yes","768","30","None","30","None","legacy","7","7","1","C:/Users/admin/Desktop/임채은/!MouseTracking_final/subject-42.csv","legacy","2","2","1","Kafkaesque Koffka","3.2.6","0","yellow","space","NA","None","yellow","start","space","NA","NA","NA","NA","616","109586","NA","250","616","420","5451","NA","NA","NA","NA","2","legacy","1024","2","48000","-16","experiment","42","even","legacy","red","green","blue","yellow","2","6988","NA","NA","140003","1531","NA","138631","139135","139387","138210","120920","1536","140006","141006","139135","139387","NA","NA","NA","NA","138209","NA","NA","NA","NA","NA","NA","116574","138208","[139136.0, 139146.0, 139156.0, 139166.0, 139176.0, 139186.0, 139196.0, 139206.0, 139216.0, 139226.0, 139236.0, 139246.0, 139256.0, 139266.0, 139276.0, 139286.0, 139296.0, 139306.0, 139316.0, 139326.0, 139336.0, 139346.0, 139356.0, 139366.0, 139376.0, 139386.0]","[139387.0, 139397.0, 139407.0, 139417.0, 139427.0, 139437.0, 139447.0, 139457.0, 139467.0, 139477.0, 139487.0, 139497.0, 139507.0, 139517.0, 139527.0, 139537.0, 139547.0, 139557.0, 139567.0, 139577.0, 139587.0, 139597.0, 139607.0, 139617.0, 139627.0, 139637.0, 139647.0, 139657.0, 139667.0, 139677.0, 139687.0, 139697.0, 139707.0, 139717.0, 139727.0, 139737.0, 139747.0, 139757.0, 139767.0, 139777.0, 139787.0, 139797.0, 139807.0, 139817.0, 139827.0, 139837.0, 139847.0, 139857.0, 139867.0, 139877.0, 139887.0, 139897.0, 139907.0, 139917.0, 139927.0, 139937.0, 139947.0, 139957.0, 139967.0, 139977.0, 139987.0, 139997.0, 140003]","example_experiment","6","4963","6","yes","768","2","[0, 0, 0, 0, 0, 0, 0, 0, 0, 0, 0, 0, 0, 0, 0, 0, 0, 0, 0, 0, 0, 0, 0, 0, 0, 0]","[0, 0, 0, 0, -1, -1, -2, -3, -3, -4, -5, -5, -5, -5, -5, -5, -5, -5, -5, -5, -5, -5, -5, -5, -5, -4, -4, -4, -4, -6, -7, -9, -10, -11, -11, -11, -11, -11, -10, -9, -9, -9, -9, -9, -9, -9, -9, -9, -9, -9, -9, -9, -9, -9, -9, -9, -9, -10, -10, -11, -12, -12, -12]","[0, 0, 0, 0, 0, 0, 0, 0, 0, 0, 0, 0, 0, 0, 0, 0, 0, 0, 0, 0, 0, 0, 0, 0, 0, 0]","[0, 0, 0, 0, -5, -9, -15, -22, -30, -39, -50, -61, -74, -87, -100, -111, -124, -136, -147, -160, -171, -182, -194, -201, -208, -211, -211, -211, -202, -184, -159, -129, -97, -63, -32, 3, 36, 75, 109, 145, 184, 215, 246, 274, 297, 316, 330, 341, 347, 350, 350, 350, 350, 349, 345, 342, 338, 333, 329, 325, 322, 320, 319]"
"100","100","803.285714286","803.285714286","black","no","prac","3","legacy","legacy","w.png","r.png","w.png","w.png","1","legacy","0","relative","1","undefined","NA","red","NA","undefined","1","undefined","undefined","red","1","0","3","0","8","0","NA","8","8","8","8","8","0","8","8","8","8","0","4","NA","NA","8","0","0","0","0","0","0","0","8","12/24/20 10:02:09","Default description","yes","simont_HV.osexp","C:\Users\admin\Desktop\임채은\!MouseTracking_final","no","sans","no","18","no","black","no","yes","768","70","None","70","None","legacy","8","8","1","C:/Users/admin/Desktop/임채은/!MouseTracking_final/subject-42.csv","legacy","1","2","2","Kafkaesque Koffka","3.2.6","0","red","space","NA","None","red","start","space","NA","NA","NA","NA","660","109586","NA","250","660","932","5451","NA","NA","NA","NA","2","legacy","1024","2","48000","-16","experiment","42","even","legacy","red","green","blue","yellow","1","6988","NA","NA","143469","1531","NA","142053","142557","142809","141119","120920","1536","143476","144476","142557","142809","NA","NA","NA","NA","141119","NA","NA","NA","NA","NA","NA","116574","141118","[142558.0, 142568.0, 142578.0, 142588.0, 142598.0, 142608.0, 142618.0, 142628.0, 142638.0, 142648.0, 142658.0, 142668.0, 142678.0, 142688.0, 142698.0, 142708.0, 142718.0, 142728.0, 142738.0, 142748.0, 142758.0, 142768.0, 142778.0, 142788.0, 142798.0, 142808.0]","[142809.0, 142819.0, 142829.0, 142839.0, 142849.0, 142859.0, 142869.0, 142879.0, 142889.0, 142899.0, 142909.0, 142919.0, 142929.0, 142939.0, 142949.0, 142959.0, 142969.0, 142979.0, 142989.0, 142999.0, 143009.0, 143019.0, 143029.0, 143039.0, 143049.0, 143059.0, 143069.0, 143079.0, 143089.0, 143099.0, 143109.0, 143119.0, 143129.0, 143139.0, 143149.0, 143159.0, 143169.0, 143179.0, 143189.0, 143199.0, 143209.0, 143210, 143220.0, 143230.0, 143240.0, 143250.0, 143260.0, 143270.0, 143280.0, 143290.0, 143300.0, 143310.0, 143320.0, 143330.0, 143340.0, 143350.0, 143360.0, 143370.0, 143380.0, 143390.0, 143400.0, 143410.0, 143420.0, 143430.0, 143440.0, 143450.0, 143460.0, 143469]","example_experiment","7","5623","7","yes","768","3","[0, 0, 0, 0, 0, 0, 0, 0, 0, 0, 0, 0, 0, 0, 0, 0, 0, 0, 0, 0, 0, 0, 0, 0, 0, 0]","[0, 0, 0, 0, 0, 0, 0, 0, -2, -6, -12, -19, -27, -36, -47, -59, -70, -82, -95, -109, -123, -136, -150, -162, -175, -185, -194, -202, -210, -218, -226, -235, -242, -248, -252, -256, -257, -258, -258, -258, -258, -258, -258, -258, -258, -260, -261, -263, -266, -270, -274, -278, -283, -287, -291, -294, -297, -299, -300, -300, -300, -300, -300, -300, -300, -300, -300, -300]","[0, 0, 0, 0, 0, 0, 0, 0, 0, 0, 0, 0, 0, 0, 0, 0, 0, 0, 0, 0, 0, 0, 0, 0, 0, 0]","[0, 0, 0, 0, 0, 0, 0, 0, 0, 0, 0, -1, -1, -2, -3, -4, -5, -6, -7, -7, -9, -10, -12, -13, -14, -14, -15, -15, -15, -16, -16, -16, -16, -16, -16, -16, -15, -15, -15, -15, -15, -15, -15, -15, -15, -15, -15, -14, -13, -12, -11, -10, -9, -8, -7, -6, -5, -5, -4, -4, -4, -4, -4, -4, -4, -4, -4, -4]"
"100","100","880","880","black","no","prac","1","legacy","legacy","y.png","w.png","w.png","w.png","2","legacy","0","relative","1","undefined","NA","yellow","NA","undefined","1","undefined","undefined","yellow","4","0","3","0","9","0","NA","9","9","9","9","9","0","9","9","9","9","0","4","NA","NA","9","0","0","0","0","0","0","0","9","12/24/20 10:02:09","Default description","yes","simont_HV.osexp","C:\Users\admin\Desktop\임채은\!MouseTracking_final","no","sans","no","18","no","black","no","yes","768","60","None","60","None","legacy","9","9","2","C:/Users/admin/Desktop/임채은/!MouseTracking_final/subject-42.csv","legacy","1","1","2","Kafkaesque Koffka","3.2.6","0","yellow","space","NA","None","yellow","start","space","NA","NA","NA","NA","1417","109586","NA","250","1417","346","5451","NA","NA","NA","NA","2","legacy","1024","2","48000","-16","experiment","42","even","legacy","red","green","blue","yellow","2","6988","NA","NA","147120","1531","NA","144947","145451","145703","144599","120920","1536","147126","148126","145451","145703","NA","NA","NA","NA","144599","NA","NA","NA","NA","NA","NA","116574","144598","[145452.0, 145462.0, 145472.0, 145482.0, 145492.0, 145502.0, 145512.0, 145522.0, 145532.0, 145542.0, 145552.0, 145562.0, 145572.0, 145582.0, 145592.0, 145602.0, 145612.0, 145622.0, 145632.0, 145642.0, 145652.0, 145662.0, 145672.0, 145682.0, 145692.0, 145702.0]","[145703.0, 145713.0, 145723.0, 145733.0, 145743.0, 145753.0, 145763.0, 145773.0, 145783.0, 145793.0, 145803.0, 145813.0, 145823.0, 145833.0, 145843.0, 145853.0, 145863.0, 145873.0, 145883.0, 145893.0, 145903.0, 145913.0, 145923.0, 145933.0, 145943.0, 145953.0, 145963.0, 145973.0, 145983.0, 145993.0, 146003.0, 146013.0, 146023.0, 146033.0, 146043.0, 146053.0, 146063.0, 146073.0, 146083.0, 146093.0, 146103.0, 146113.0, 146123.0, 146133.0, 146143.0, 146153.0, 146163.0, 146173.0, 146183.0, 146193.0, 146193, 146203.0, 146213.0, 146223.0, 146233.0, 146243.0, 146253.0, 146263.0, 146273.0, 146283.0, 146293.0, 146303.0, 146313.0, 146323.0, 146333.0, 146343.0, 146353.0, 146363.0, 146373.0, 146383.0, 146393.0, 146403.0, 146413.0, 146423.0, 146433.0, 146443.0, 146453.0, 146463.0, 146473.0, 146483.0, 146493.0, 146503.0, 146513.0, 146523.0, 146533.0, 146543.0, 146553.0, 146563.0, 146573.0, 146583.0, 146593.0, 146603.0, 146613.0, 146623.0, 146633.0, 146643.0, 146653.0, 146663.0, 146673.0, 146683.0, 146693.0, 146703.0, 146713.0, 146723.0, 146733.0, 146743.0, 146753.0, 146763.0, 146773.0, 146783.0, 146793.0, 146803.0, 146813.0, 146823.0, 146833.0, 146843.0, 146853.0, 146863.0, 146873.0, 146883.0, 146893.0, 146903.0, 146913.0, 146923.0, 146933.0, 146943.0, 146953.0, 146963.0, 146973.0, 146983.0, 146993.0, 147003.0, 147013.0, 147023.0, 147033.0, 147043.0, 147053.0, 147063.0, 147073.0, 147083.0, 147093.0, 147103.0, 147113.0, 147120]","example_experiment","8","7040","8","yes","768","3","[0, 0, 0, 0, 0, 0, 0, 0, 0, 0, 0, 0, 0, 0, 0, 0, 0, 0, 0, 0, 0, 0, 0, 0, 0, 0]","[0, 0, 0, 0, 0, 0, 0, 0, 0, 0, 0, -2, -3, -4, -6, -7, -8, -9, -9, -9, -9, -9, -8, -6, -5, -4, -3, -2, -2, -1, -1, -1, -1, -1, -1, -1, -1, -1, -1, -1, -1, -1, -1, -1, -1, -1, -1, -1, -1, -1, -1, -1, -1, -1, -1, -1, -1, -1, -1, -1, -1, -1, -1, -1, -1, 0, 1, 2, 3, 4, 5, 6, 7, 7, 7, 7, 7, 7, 7, 7, 7, 7, 6, 6, 6, 6, 6, 6, 6, 6, 6, 6, 6, 6, 6, 6, 6, 6, 6, 6, 6, 6, 6, 6, 6, 6, 6, 6, 5, 4, 3, 2, 0, -1, -1, -1, -2, -2, -2, -2, -2, -2, -2, -2, -3, -3, -3, -3, -3, -3, -3, -3, -3, -3, -3, -3, -3, -3, -3, -3, -3, -3, -3, -3]","[0, 0, 0, 0, 0, 0, 0, 0, 0, 0, 0, 0, 0, 0, 0, 0, 0, 0, 0, 0, 0, 0, 0, 0, 0, 0]","[0, 0, 0, 0, 0, 0, 0, 3, 8, 14, 22, 34, 45, 60, 77, 93, 111, 128, 144, 161, 176, 191, 204, 217, 229, 237, 246, 254, 259, 265, 268, 271, 272, 272, 273, 273, 274, 275, 277, 279, 280, 281, 281, 281, 281, 281, 281, 281, 281, 281, 281, 281, 281, 281, 281, 281, 281, 281, 281, 281, 281, 279, 276, 270, 262, 253, 241, 226, 212, 195, 176, 156, 136, 115, 96, 75, 58, 41, 24, 12, 3, -5, -10, -13, -13, -13, -13, -13, -13, -13, -13, -11, -7, -3, 2, 9, 18, 27, 39, 54, 70, 88, 103, 118, 134, 147, 161, 174, 189, 202, 214, 225, 233, 240, 244, 248, 250, 252, 253, 254, 254, 254, 254, 254, 255, 258, 259, 263, 266, 273, 279, 285, 292, 299, 306, 312, 317, 321, 323, 325, 326, 326, 326, 326]"
"100","100","837.333333333","837.333333333","black","no","prac","1","legacy","legacy","w.png","w.png","g.png","w.png","2","legacy","0","relative","1","undefined","NA","green","NA","undefined","1","undefined","undefined","green","2","0","3","0","10","0","NA","10","10","10","10","10","0","10","10","10","10","0","4","NA","NA","10","0","0","0","0","0","0","0","10","12/24/20 10:02:09","Default description","yes","simont_HV.osexp","C:\Users\admin\Desktop\임채은\!MouseTracking_final","no","sans","no","18","no","black","no","yes","768","50","None","50","10","legacy","10","10","2","C:/Users/admin/Desktop/임채은/!MouseTracking_final/subject-42.csv","legacy","1","1","1","Kafkaesque Koffka","3.2.6","0","green","space","NA","None","green","start","space","NA","NA","NA","NA","496","109586","NA","250","496","431","5451","NA","NA","NA","NA","2","legacy","1024","2","48000","-16","experiment","42","even","legacy","red","green","blue","yellow","1","6988","NA","NA","149916","1531","NA","148664","149168","149420","148232","120920","1536","149926","150926","149168","149420","NA","NA","NA","NA","148232","NA","NA","NA","NA","NA","NA","116574","148231","[149169.0, 149179.0, 149189.0, 149199.0, 149209.0, 149219.0, 149229.0, 149239.0, 149249.0, 149259.0, 149269.0, 149279.0, 149289.0, 149299.0, 149309.0, 149319.0, 149329.0, 149339.0, 149349.0, 149359.0, 149369.0, 149379.0, 149389.0, 149399.0, 149409.0, 149419.0]","[149420.0, 149430.0, 149440.0, 149450.0, 149460.0, 149470.0, 149480.0, 149490.0, 149500.0, 149510.0, 149520.0, 149530.0, 149540.0, 149550.0, 149560.0, 149570.0, 149580.0, 149590.0, 149600.0, 149610.0, 149620.0, 149630.0, 149640.0, 149650.0, 149660.0, 149670.0, 149680.0, 149690.0, 149700.0, 149710.0, 149720.0, 149730.0, 149740.0, 149750.0, 149760.0, 149770.0, 149780.0, 149790.0, 149800.0, 149810.0, 149820.0, 149830.0, 149840.0, 149850.0, 149860.0, 149870.0, 149880.0, 149890.0, 149900.0, 149910.0, 149916]","example_experiment","9","7536","9","yes","768","1","[0, 0, 0, 0, 0, 0, 0, 0, 0, 0, 0, 0, 0, 0, 0, 0, 0, 0, 0, 0, 0, 0, 0, 0, 0, 0]","[0, 0, 0, 0, 0, 0, 1, 4, 8, 11, 15, 20, 26, 32, 39, 45, 50, 56, 59, 62, 64, 66, 70, 75, 82, 92, 104, 118, 135, 152, 172, 191, 213, 235, 252, 271, 288, 300, 310, 317, 321, 321, 321, 321, 321, 321, 320, 319, 319, 318, 318]","[0, 0, 0, 0, 0, 0, 0, 0, 0, 0, 0, 0, 0, 0, 0, 0, 0, 0, 0, 0, 0, 0, 0, 0, 0, 0]","[0, 0, 0, 0, 0, 0, -1, -1, -2, -2, -3, -3, -3, -4, -4, -5, -5, -6, -6, -7, -7, -7, -7, -7, -7, -6, -4, -3, -1, 0, 3, 4, 6, 7, 7, 8, 9, 9, 9, 9, 9, 9, 9, 9, 9, 9, 9, 9, 9, 9, 9]"
"100","100","810.3","810.3","black","no","prac","1","legacy","legacy","w.png","w.png","w.png","b.png","1","legacy","0","relative","1","undefined","NA","blue","NA","undefined","1","undefined","undefined","blue","3","0","3","0","11","0","NA","11","11","11","11","11","0","11","11","11","11","0","4","NA","NA","11","0","0","0","0","0","0","0","11","12/24/20 10:02:09","Default description","yes","simont_HV.osexp","C:\Users\admin\Desktop\임채은\!MouseTracking_final","no","sans","no","18","no","black","no","yes","768","40","None","40","None","legacy","11","11","1","C:/Users/admin/Desktop/임채은/!MouseTracking_final/subject-42.csv","legacy","1","1","1","Kafkaesque Koffka","3.2.6","0","blue","space","NA","None","blue","start","space","NA","NA","NA","NA","567","109586","NA","250","567","517","5451","NA","NA","NA","NA","2","legacy","1024","2","48000","-16","experiment","42","even","legacy","red","green","blue","yellow","2","6988","NA","NA","152886","1531","NA","151563","152067","152319","151045","120920","1536","152906","153906","152067","152319","NA","NA","NA","NA","151045","NA","NA","NA","NA","NA","NA","116574","151043","[152068.0, 152078.0, 152088.0, 152098.0, 152108.0, 152118.0, 152128.0, 152138.0, 152148.0, 152158.0, 152168.0, 152178.0, 152188.0, 152198.0, 152208.0, 152218.0, 152228.0, 152238.0, 152248.0, 152258.0, 152268.0, 152278.0, 152288.0, 152298.0, 152308.0, 152318.0]","[152319.0, 152329.0, 152339.0, 152349.0, 152359.0, 152369.0, 152379.0, 152389.0, 152399.0, 152409.0, 152419.0, 152429.0, 152439.0, 152449.0, 152459.0, 152469.0, 152479.0, 152489.0, 152499.0, 152509.0, 152519.0, 152529.0, 152539.0, 152549.0, 152559.0, 152569.0, 152579.0, 152589.0, 152599.0, 152609.0, 152619.0, 152629.0, 152639.0, 152649.0, 152659.0, 152669.0, 152679.0, 152689.0, 152699.0, 152709.0, 152719.0, 152729.0, 152739.0, 152749.0, 152759.0, 152769.0, 152779.0, 152789.0, 152799.0, 152809.0, 152819.0, 152829.0, 152839.0, 152849.0, 152859.0, 152869.0, 152879.0, 152886]","example_experiment","10","8103","10","yes","768","1","[0, 0, 0, 0, 0, 0, 0, 0, 0, 0, 0, 0, 0, 0, 0, 0, 0, 0, 0, 0, 0, 0, 0, 0, 0, 0]","[0, 0, 0, 0, 0, -1, -2, -2, -2, -3, -3, -4, -5, -6, -7, -8, -11, -13, -14, -17, -18, -20, -22, -23, -25, -26, -27, -29, -30, -30, -31, -32, -32, -32, -32, -32, -32, -32, -31, -30, -27, -24, -20, -16, -12, -9, -6, -3, -2, -2, -1, -1, -1, -1, -1, -1, -1, -1]","[0, 0, 0, 0, 0, 0, 0, 0, 0, 0, 0, 0, 0, 0, 0, 0, 0, 0, 0, 0, 0, 0, 0, 0, 0, 0]","[0, 0, 0, 0, 0, -3, -7, -12, -19, -26, -36, -47, -58, -72, -84, -99, -114, -127, -142, -157, -171, -184, -197, -208, -219, -230, -239, -248, -255, -262, -267, -272, -277, -281, -284, -288, -290, -292, -293, -294, -295, -296, -297, -299, -301, -302, -303, -305, -306, -307, -308, -308, -308, -308, -308, -308, -308, -308]"
"100","100","801.272727273","801.272727273","black","no","prac","1","legacy","legacy","w.png","r.png","w.png","w.png","1","legacy","0","relative","1","undefined","NA","red","NA","undefined","1","undefined","undefined","red","1","0","3","0","12","0","NA","12","12","12","12","12","0","12","12","12","12","0","4","NA","NA","12","0","0","0","0","0","0","0","12","12/24/20 10:02:09","Default description","yes","simont_HV.osexp","C:\Users\admin\Desktop\임채은\!MouseTracking_final","no","sans","no","18","no","black","no","yes","768","120","None","120","None","legacy","12","12","1","C:/Users/admin/Desktop/임채은/!MouseTracking_final/subject-42.csv","legacy","1","1","1","Kafkaesque Koffka","3.2.6","0","red","space","NA","None","red","start","space","NA","NA","NA","NA","711","109586","NA","250","711","358","5451","NA","NA","NA","NA","2","legacy","1024","2","48000","-16","experiment","42","even","legacy","red","green","blue","yellow","1","6988","NA","NA","155847","1531","NA","154380","154884","155136","154021","120920","1536","155856","156856","154884","155136","NA","NA","NA","NA","154021","NA","NA","NA","NA","NA","NA","116574","154020","[154885.0, 154895.0, 154905.0, 154915.0, 154925.0, 154935.0, 154945.0, 154955.0, 154965.0, 154975.0, 154985.0, 154995.0, 155005.0, 155015.0, 155025.0, 155035.0, 155045.0, 155055.0, 155065.0, 155075.0, 155085.0, 155095.0, 155105.0, 155115.0, 155125.0, 155135.0]","[155136.0, 155146.0, 155156.0, 155166.0, 155176.0, 155186.0, 155196.0, 155206.0, 155216.0, 155226.0, 155236.0, 155246.0, 155256.0, 155266.0, 155276.0, 155286.0, 155296.0, 155306.0, 155316.0, 155326.0, 155336.0, 155346.0, 155356.0, 155366.0, 155376.0, 155386.0, 155396.0, 155406.0, 155416.0, 155426.0, 155436.0, 155446.0, 155456.0, 155466.0, 155476.0, 155486.0, 155496.0, 155506.0, 155516.0, 155526.0, 155536.0, 155546.0, 155556.0, 155566.0, 155576.0, 155586.0, 155596.0, 155606.0, 155616.0, 155626.0, 155636.0, 155646.0, 155656.0, 155666.0, 155676.0, 155686.0, 155696.0, 155706.0, 155716.0, 155726.0, 155736.0, 155746.0, 155756.0, 155766.0, 155776.0, 155786.0, 155796.0, 155806.0, 155816.0, 155826.0, 155836.0, 155846.0, 155847]","example_experiment","11","8814","11","yes","768","1","[0, 0, 0, 0, 0, 0, 0, 0, 0, 0, 0, 0, 0, 0, 0, 0, 0, 0, 0, 0, 0, 0, 0, 0, 0, 0]","[0, 0, 0, 0, 0, 0, 0, 0, 0, 0, 0, 0, 0, -2, -4, -7, -12, -19, -29, -42, -59, -77, -97, -116, -134, -152, -168, -185, -199, -216, -230, -242, -255, -264, -272, -277, -280, -281, -281, -281, -281, -281, -281, -281, -281, -281, -281, -281, -281, -282, -283, -285, -286, -288, -289, -289, -290, -291, -292, -294, -298, -303, -309, -314, -319, -323, -324, -325, -325, -325, -325, -325, -325]","[0, 0, 0, 0, 0, 0, 0, 0, 0, 0, 0, 0, 0, 0, 0, 0, 0, 0, 0, 0, 0, 0, 0, 0, 0, 0]","[0, 0, 0, 0, 0, 0, 0, 0, 0, 0, 0, 0, 0, 0, 0, 0, 0, 0, 0, 0, 0, 0, 0, 0, 0, 1, 1, 1, 1, 1, 1, 1, 1, 1, 1, 1, 1, 1, 1, 1, 1, 1, 1, 1, 1, 1, 1, 1, 1, 1, 1, 1, 1, 1, 1, 1, 1, 1, 1, 1, 1, 1, 1, 1, 1, 1, 1, 1, 1, 1, 1, 1, 1]"
"100","100","811.75","811.75","black","no","prac","2","legacy","legacy","w.png","w.png","w.png","y.png","2","legacy","0","relative","1","undefined","NA","yellow","NA","undefined","1","undefined","undefined","yellow","4","0","3","0","13","0","NA","13","13","13","13","13","0","13","13","13","13","0","4","NA","NA","13","0","0","0","0","0","0","0","13","12/24/20 10:02:09","Default description","yes","simont_HV.osexp","C:\Users\admin\Desktop\임채은\!MouseTracking_final","no","sans","no","18","no","black","no","yes","768","20","None","20","None","legacy","13","13","1","C:/Users/admin/Desktop/임채은/!MouseTracking_final/subject-42.csv","legacy","2","1","1","Kafkaesque Koffka","3.2.6","0","yellow","space","NA","None","yellow","start","space","NA","NA","NA","NA","927","109586","NA","250","927","391","5451","NA","NA","NA","NA","2","legacy","1024","2","48000","-16","experiment","42","even","legacy","red","green","blue","yellow","2","6988","NA","NA","159059","1531","NA","157377","157880","158132","156985","120920","1536","159076","160076","157880","158132","NA","NA","NA","NA","156985","NA","NA","NA","NA","NA","NA","116574","156983","[157881.0, 157891.0, 157901.0, 157911.0, 157921.0, 157931.0, 157941.0, 157951.0, 157961.0, 157971.0, 157981.0, 157991.0, 158001.0, 158011.0, 158021.0, 158031.0, 158041.0, 158051.0, 158061.0, 158071.0, 158081.0, 158091.0, 158101.0, 158111.0, 158121.0, 158131.0]","[158132.0, 158142.0, 158152.0, 158162.0, 158172.0, 158182.0, 158192.0, 158202.0, 158212.0, 158222.0, 158232.0, 158242.0, 158252.0, 158262.0, 158272.0, 158282.0, 158292.0, 158302.0, 158312.0, 158322.0, 158332.0, 158342.0, 158352.0, 158362.0, 158372.0, 158382.0, 158392.0, 158402.0, 158412.0, 158422.0, 158432.0, 158442.0, 158452.0, 158462.0, 158472.0, 158482.0, 158492.0, 158502.0, 158512.0, 158522.0, 158532.0, 158542.0, 158552.0, 158562.0, 158572.0, 158582.0, 158592.0, 158602.0, 158612.0, 158622.0, 158632.0, 158642.0, 158652.0, 158662.0, 158672.0, 158682.0, 158692.0, 158702.0, 158712.0, 158722.0, 158732.0, 158742.0, 158752.0, 158762.0, 158772.0, 158782.0, 158792.0, 158802.0, 158812.0, 158822.0, 158832.0, 158842.0, 158852.0, 158862.0, 158872.0, 158882.0, 158892.0, 158902.0, 158912.0, 158922.0, 158932.0, 158942.0, 158952.0, 158962.0, 158972.0, 158982.0, 158992.0, 159002.0, 159012.0, 159022.0, 159032.0, 159042.0, 159052.0, 159059]","example_experiment","12","9741","12","yes","768","2","[0, 0, 0, 0, 0, 0, 0, 0, 0, 0, 0, 0, 0, 0, 0, 0, 0, 0, 0, 0, 0, 0, 0, 0, 0, 0]","[0, 0, 0, 0, 0, -1, -1, -2, -2, -2, -2, -2, -1, 1, 2, 2, 4, 5, 6, 7, 9, 10, 11, 12, 13, 13, 13, 13, 13, 13, 13, 13, 13, 13, 13, 13, 13, 13, 13, 13, 13, 13, 13, 15, 19, 24, 30, 37, 42, 48, 50, 51, 51, 51, 50, 50, 50, 50, 50, 50, 50, 50, 50, 50, 50, 50, 50, 50, 50, 50, 50, 49, 48, 47, 46, 45, 43, 42, 39, 36, 31, 27, 21, 14, 8, 1, -4, -7, -9, -9, -10, -11, -11, -11]","[0, 0, 0, 0, 0, 0, 0, 0, 0, 0, 0, 0, 0, 0, 0, 0, 0, 0, 0, 0, 0, 0, 0, 0, 0, 0]","[0, 0, 0, -1, -5, -10, -16, -24, -35, -46, -61, -76, -93, -110, -130, -147, -167, -184, -203, -219, -237, -253, -265, -279, -290, -300, -307, -315, -321, -325, -328, -330, -331, -331, -331, -331, -331, -331, -330, -325, -318, -309, -293, -275, -254, -226, -199, -166, -131, -87, -46, -4, 40, 75, 115, 145, 173, 199, 220, 237, 250, 258, 264, 268, 270, 271, 271, 271, 271, 271, 268, 267, 265, 264, 264, 264, 264, 264, 265, 267, 271, 275, 281, 290, 299, 306, 311, 315, 317, 318, 319, 320, 320, 320]"
"100","100","801.923076923","801.923076923","black","no","prac","3","legacy","legacy","w.png","r.png","w.png","w.png","1","legacy","0","relative","1","undefined","NA","red","NA","undefined","1","undefined","undefined","red","1","0","3","0","14","0","NA","14","14","14","14","14","0","14","14","14","14","0","4","NA","NA","14","0","0","0","0","0","0","0","14","12/24/20 10:02:09","Default description","yes","simont_HV.osexp","C:\Users\admin\Desktop\임채은\!MouseTracking_final","no","sans","no","18","no","black","no","yes","768","100","None","100","None","legacy","14","14","1","C:/Users/admin/Desktop/임채은/!MouseTracking_final/subject-42.csv","legacy","1","2","1","Kafkaesque Koffka","3.2.6","0","red","space","NA","None","red","start","space","NA","NA","NA","NA","684","109586","NA","250","684","455","5451","NA","NA","NA","NA","2","legacy","1024","2","48000","-16","experiment","42","even","legacy","red","green","blue","yellow","1","6988","NA","NA","162159","1531","NA","160719","161223","161475","160263","120920","1536","162166","163166","161223","161475","NA","NA","NA","NA","160263","NA","NA","NA","NA","NA","NA","116574","160261","[161224.0, 161234.0, 161244.0, 161254.0, 161264.0, 161274.0, 161284.0, 161294.0, 161304.0, 161314.0, 161324.0, 161334.0, 161344.0, 161354.0, 161364.0, 161374.0, 161384.0, 161394.0, 161404.0, 161414.0, 161424.0, 161434.0, 161444.0, 161454.0, 161464.0, 161474.0]","[161475.0, 161485.0, 161495.0, 161505.0, 161515.0, 161525.0, 161535.0, 161545.0, 161555.0, 161565.0, 161575.0, 161585.0, 161595.0, 161605.0, 161615.0, 161625.0, 161635.0, 161645.0, 161655.0, 161665.0, 161675.0, 161685.0, 161695.0, 161705.0, 161715.0, 161725.0, 161735.0, 161745.0, 161755.0, 161765.0, 161775.0, 161785.0, 161795.0, 161805.0, 161815.0, 161825.0, 161835.0, 161845.0, 161855.0, 161865.0, 161875.0, 161885.0, 161895.0, 161905.0, 161915.0, 161925.0, 161935.0, 161945.0, 161955.0, 161965.0, 161975.0, 161985.0, 161995.0, 162005.0, 162015.0, 162025.0, 162035.0, 162045.0, 162055.0, 162065.0, 162075.0, 162085.0, 162095.0, 162105.0, 162115.0, 162125.0, 162135.0, 162145.0, 162155.0, 162159]","example_experiment","13","10425","13","yes","768","1","[0, 0, 0, 0, 0, 0, 0, 0, 0, 0, 0, 0, 0, 0, 0, 0, 0, 0, 0, 0, 0, 0, 0, 0, 0, 0]","[0, 0, 0, 0, 0, 0, 0, 0, 0, 0, 0, -2, -8, -18, -30, -47, -64, -83, -100, -118, -136, -154, -171, -187, -202, -216, -228, -238, -247, -254, -260, -264, -265, -265, -265, -265, -265, -265, -265, -265, -265, -267, -269, -273, -278, -282, -286, -289, -290, -291, -291, -291, -291, -291, -291, -291, -292, -295, -297, -299, -302, -303, -303, -303, -303, -303, -303, -303, -303, -303]","[0, 0, 0, 0, 0, 0, 0, 0, 0, 0, 0, 0, 0, 0, 0, 0, 0, 0, 0, 0, 0, 0, 0, 0, 0, 0]","[0, 0, 0, 0, 0, 0, 0, 0, 0, 0, 0, 0, 0, 1, 1, 3, 4, 6, 7, 9, 10, 11, 11, 11, 11, 11, 11, 11, 11, 11, 11, 11, 11, 11, 11, 11, 11, 11, 11, 11, 11, 11, 11, 12, 13, 13, 13, 14, 14, 14, 14, 14, 14, 14, 14, 14, 14, 14, 14, 14, 14, 14, 14, 14, 14, 14, 14, 14, 14, 14]"
"100","100","822.214285714","822.214285714","black","no","prac","2","legacy","legacy","b.png","w.png","w.png","w.png","1","legacy","0","relative","1","undefined","NA","blue","NA","undefined","1","undefined","undefined","blue","3","0","3","0","15","0","NA","15","15","15","15","15","0","15","15","15","15","0","4","NA","NA","15","0","0","0","0","0","0","0","15","12/24/20 10:02:09","Default description","yes","simont_HV.osexp","C:\Users\admin\Desktop\임채은\!MouseTracking_final","no","sans","no","18","no","black","no","yes","768","60","None","60","None","legacy","15","15","2","C:/Users/admin/Desktop/임채은/!MouseTracking_final/subject-42.csv","legacy","2","1","2","Kafkaesque Koffka","3.2.6","0","blue","space","NA","None","blue","start","space","NA","NA","NA","NA","1086","109586","NA","250","1086","602","5451","NA","NA","NA","NA","2","legacy","1024","2","48000","-16","experiment","42","even","legacy","red","green","blue","yellow","2","6988","NA","NA","165742","1531","NA","163900","164404","164656","163297","120920","1536","165746","166746","164404","164656","NA","NA","NA","NA","163297","NA","NA","NA","NA","NA","NA","116574","163295","[164405.0, 164415.0, 164425.0, 164435.0, 164445.0, 164455.0, 164465.0, 164475.0, 164485.0, 164495.0, 164505.0, 164515.0, 164525.0, 164535.0, 164545.0, 164555.0, 164565.0, 164575.0, 164585.0, 164595.0, 164605.0, 164615.0, 164625.0, 164635.0, 164645.0, 164655.0]","[164656.0, 164666.0, 164676.0, 164686.0, 164696.0, 164706.0, 164716.0, 164726.0, 164736.0, 164746.0, 164756.0, 164766.0, 164776.0, 164786.0, 164796.0, 164806.0, 164816.0, 164826.0, 164836.0, 164846.0, 164856.0, 164866.0, 164876.0, 164886.0, 164896.0, 164906.0, 164916.0, 164926.0, 164936.0, 164946.0, 164956.0, 164966.0, 164976.0, 164986.0, 164996.0, 165006.0, 165016.0, 165026.0, 165036.0, 165046.0, 165056.0, 165066.0, 165076.0, 165086.0, 165096.0, 165106.0, 165116.0, 165126.0, 165136.0, 165146.0, 165156.0, 165166.0, 165176.0, 165186.0, 165196.0, 165206.0, 165216.0, 165226.0, 165236.0, 165246.0, 165256.0, 165266.0, 165276.0, 165286.0, 165296.0, 165306.0, 165316.0, 165326.0, 165336.0, 165346.0, 165356.0, 165366.0, 165376.0, 165386.0, 165396.0, 165406.0, 165416.0, 165426.0, 165436.0, 165446.0, 165456.0, 165466.0, 165476.0, 165486.0, 165496.0, 165506.0, 165516.0, 165526.0, 165536.0, 165546.0, 165556.0, 165566.0, 165576.0, 165586.0, 165596.0, 165606.0, 165616.0, 165626.0, 165636.0, 165646.0, 165656.0, 165666.0, 165676.0, 165686.0, 165696.0, 165706.0, 165716.0, 165726.0, 165736.0, 165742]","example_experiment","14","11511","14","yes","768","4","[0, 0, 0, 0, 0, 0, 0, 0, 0, 0, 0, 0, 0, 0, 0, 0, 0, 0, 0, 0, 0, 0, 0, 0, 0, 0]","[0, 0, 0, 0, 0, 0, 0, 0, 0, 0, 0, 1, 4, 7, 12, 17, 22, 27, 31, 36, 42, 52, 64, 80, 96, 116, 134, 151, 166, 178, 187, 190, 191, 191, 191, 189, 188, 186, 186, 186, 186, 188, 194, 201, 209, 218, 229, 238, 250, 262, 272, 281, 287, 290, 290, 291, 291, 287, 280, 268, 252, 230, 209, 188, 165, 147, 129, 111, 95, 79, 66, 54, 44, 39, 33, 29, 27, 25, 25, 25, 25, 26, 26, 27, 27, 27, 27, 27, 25, 24, 23, 22, 21, 20, 19, 18, 16, 14, 13, 12, 11, 10, 9, 8, 7, 6, 5, 4, 4, 4]","[0, 0, 0, 0, 0, 0, 0, 0, 0, 0, 0, 0, 0, 0, 0, 0, 0, 0, 0, 0, 0, 0, 0, 0, 0, 0]","[0, 0, 0, 0, 0, 0, 0, 1, 3, 6, 8, 11, 13, 16, 18, 21, 23, 25, 27, 28, 31, 35, 38, 42, 45, 48, 50, 52, 53, 54, 55, 55, 55, 55, 56, 57, 58, 59, 59, 60, 60, 60, 60, 59, 56, 54, 50, 47, 43, 39, 36, 33, 30, 27, 26, 24, 22, 19, 15, 9, 3, -5, -13, -23, -33, -43, -54, -67, -81, -96, -110, -125, -137, -147, -158, -168, -175, -181, -186, -191, -195, -200, -204, -209, -214, -219, -223, -228, -233, -238, -242, -247, -251, -259, -264, -268, -271, -274, -277, -280, -282, -285, -288, -291, -294, -297, -299, -301, -302, -302]"
"100","100","798.733333333","798.733333333","black","no","prac","4","legacy","legacy","w.png","w.png","r.png","w.png","1","legacy","0","relative","1","undefined","NA","red","NA","undefined","1","undefined","undefined","red","1","0","3","0","16","0","NA","16","16","16","16","16","0","16","16","16","16","0","4","NA","NA","16","0","0","0","0","0","0","0","16","12/24/20 10:02:09","Default description","yes","simont_HV.osexp","C:\Users\admin\Desktop\임채은\!MouseTracking_final","no","sans","no","18","no","black","no","yes","768","120","None","120","None","legacy","16","16","2","C:/Users/admin/Desktop/임채은/!MouseTracking_final/subject-42.csv","legacy","2","2","1","Kafkaesque Koffka","3.2.6","0","red","space","NA","None","red","start","space","NA","NA","NA","NA","470","109586","NA","250","470","288","5451","NA","NA","NA","NA","2","legacy","1024","2","48000","-16","experiment","42","even","legacy","red","green","blue","yellow","1","6988","NA","NA","168395","1531","NA","167169","167673","167925","166880","120920","1536","168416","169416","167673","167925","NA","NA","NA","NA","166880","NA","NA","NA","NA","NA","NA","116574","166878","[167674.0, 167684.0, 167694.0, 167704.0, 167714.0, 167724.0, 167734.0, 167744.0, 167754.0, 167764.0, 167774.0, 167784.0, 167794.0, 167804.0, 167814.0, 167824.0, 167834.0, 167844.0, 167854.0, 167864.0, 167874.0, 167884.0, 167894.0, 167904.0, 167914.0, 167924.0]","[167925.0, 167935.0, 167945.0, 167955.0, 167965.0, 167975.0, 167985.0, 167995.0, 168005.0, 168015.0, 168025.0, 168035.0, 168045.0, 168055.0, 168065.0, 168075.0, 168085.0, 168095.0, 168105.0, 168115.0, 168125.0, 168135.0, 168145.0, 168155.0, 168165.0, 168175.0, 168185.0, 168195.0, 168205.0, 168215.0, 168225.0, 168235.0, 168245.0, 168255.0, 168265.0, 168275.0, 168285.0, 168295.0, 168305.0, 168315.0, 168325.0, 168335.0, 168345.0, 168355.0, 168365.0, 168375.0, 168385.0, 168395.0, 168395]","example_experiment","15","11981","15","yes","768","2","[0, 0, 0, 0, 0, 0, 0, 0, 0, 0, 0, 0, 0, 0, 0, 0, 0, 0, 0, 0, 0, 0, 0, 0, 0, 0]","[0, 0, 0, 0, 0, 0, 0, 0, 0, 0, 0, 0, 0, 1, 3, 5, 5, 5, 5, 3, -4, -13, -27, -42, -60, -82, -103, -121, -142, -161, -180, -202, -222, -244, -262, -280, -295, -303, -309, -312, -312, -312, -312, -312, -312, -312, -312, -312, -312]","[0, 0, 0, 0, 0, 0, 0, 0, 0, 0, 0, 0, 0, 0, 0, 0, 0, 0, 0, 0, 0, 0, 0, 0, 0, 0]","[0, 0, 0, 0, 0, 0, 0, 0, 0, 0, 0, 0, 0, 0, -1, -2, -2, -3, -3, -5, -6, -6, -6, -6, -5, -4, -3, -1, -1, -1, -1, -1, -1, -2, -2, -3, -3, -3, -3, -3, -3, -3, -3, -4, -4, -4, -4, -4, -4]"
"100","100","782.4375","782.4375","black","no","prac","4","legacy","legacy","b.png","w.png","w.png","w.png","1","legacy","0","relative","1","undefined","NA","blue","NA","undefined","1","undefined","undefined","blue","3","0","3","0","17","0","NA","17","17","17","17","17","0","17","17","17","17","0","4","NA","NA","17","0","0","0","0","0","0","0","17","12/24/20 10:02:09","Default description","yes","simont_HV.osexp","C:\Users\admin\Desktop\임채은\!MouseTracking_final","no","sans","no","18","no","black","no","yes","768","20","None","20","None","legacy","17","17","2","C:/Users/admin/Desktop/임채은/!MouseTracking_final/subject-42.csv","legacy","2","2","2","Kafkaesque Koffka","3.2.6","0","blue","space","NA","None","blue","start","space","NA","NA","NA","NA","538","109586","NA","250","538","317","5451","NA","NA","NA","NA","2","legacy","1024","2","48000","-16","experiment","42","even","legacy","red","green","blue","yellow","2","6988","NA","NA","171143","1531","NA","169849","170353","170605","169531","120920","1536","171146","172146","170353","170605","NA","NA","NA","NA","169531","NA","NA","NA","NA","NA","NA","116574","169529","[170354.0, 170364.0, 170374.0, 170384.0, 170394.0, 170404.0, 170414.0, 170424.0, 170434.0, 170444.0, 170454.0, 170464.0, 170474.0, 170484.0, 170494.0, 170504.0, 170514.0, 170524.0, 170534.0, 170544.0, 170554.0, 170564.0, 170574.0, 170584.0, 170594.0, 170604.0]","[170605.0, 170615.0, 170625.0, 170635.0, 170645.0, 170655.0, 170665.0, 170675.0, 170685.0, 170695.0, 170705.0, 170715.0, 170725.0, 170735.0, 170745.0, 170755.0, 170765.0, 170775.0, 170785.0, 170795.0, 170805.0, 170815.0, 170825.0, 170835.0, 170845.0, 170855.0, 170865.0, 170875.0, 170885.0, 170895.0, 170905.0, 170915.0, 170925.0, 170935.0, 170945.0, 170955.0, 170965.0, 170975.0, 170985.0, 170995.0, 171005.0, 171015.0, 171025.0, 171035.0, 171045.0, 171055.0, 171065.0, 171075.0, 171085.0, 171095.0, 171105.0, 171115.0, 171125.0, 171135.0, 171143]","example_experiment","16","12519","16","yes","768","4","[0, 0, 0, 0, 0, 0, 0, 0, 0, 0, 0, 0, 0, 0, 0, 0, 0, 0, 0, 0, 0, 0, 0, 0, 0, 0]","[0, 0, 0, 0, 0, 0, 0, 0, 0, 0, 0, 0, 0, 0, 0, 0, 0, 1, 1, 1, 1, 2, 2, 4, 5, 7, 10, 12, 15, 17, 20, 22, 24, 24, 24, 25, 25, 25, 25, 25, 23, 21, 20, 19, 19, 19, 19, 18, 18, 18, 18, 18, 18, 18, 18]","[0, 0, 0, 0, 0, 0, 0, 0, 0, 0, 0, 0, 0, 0, 0, 0, 0, 0, 0, 0, 0, 0, 0, 0, 0, 0]","[0, 0, 0, 2, 4, 6, 8, 9, 11, 12, 12, 13, 13, 13, 13, 13, 13, 13, 11, 9, 6, 2, -3, -9, -19, -31, -46, -60, -78, -101, -120, -143, -163, -185, -204, -224, -240, -254, -267, -276, -287, -293, -296, -299, -300, -300, -300, -300, -300, -300, -300, -300, -300, -300, -300]"
"100","100","793.823529412","793.823529412","black","no","prac","4","legacy","legacy","w.png","g.png","w.png","w.png","2","legacy","0","relative","1","undefined","NA","green","NA","undefined","1","undefined","undefined","green","2","0","3","0","18","0","NA","18","18","18","18","18","0","18","18","18","18","0","4","NA","NA","18","0","0","0","0","0","0","0","18","12/24/20 10:02:09","Default description","yes","simont_HV.osexp","C:\Users\admin\Desktop\임채은\!MouseTracking_final","no","sans","no","18","no","black","no","yes","768","120","None","120","0","legacy","18","18","1","C:/Users/admin/Desktop/임채은/!MouseTracking_final/subject-42.csv","legacy","2","2","2","Kafkaesque Koffka","3.2.6","0","green","space","NA","None","green","start","space","NA","NA","NA","NA","976","109586","NA","250","976","361","5451","NA","NA","NA","NA","2","legacy","1024","2","48000","-16","experiment","42","even","legacy","red","green","blue","yellow","1","6988","NA","NA","174349","1531","NA","172617","173121","173373","172255","120920","1536","174366","175366","173121","173373","NA","NA","NA","NA","172255","NA","NA","NA","NA","NA","NA","116574","172253","[173122.0, 173132.0, 173142.0, 173152.0, 173162.0, 173172.0, 173182.0, 173192.0, 173202.0, 173212.0, 173222.0, 173232.0, 173242.0, 173252.0, 173262.0, 173272.0, 173282.0, 173292.0, 173302.0, 173312.0, 173322.0, 173332.0, 173342.0, 173352.0, 173362.0, 173372.0]","[173373.0, 173383.0, 173393.0, 173403.0, 173413.0, 173423.0, 173433.0, 173443.0, 173453.0, 173463.0, 173473.0, 173483.0, 173493.0, 173503.0, 173513.0, 173523.0, 173533.0, 173543.0, 173553.0, 173563.0, 173573.0, 173583.0, 173593.0, 173603.0, 173613.0, 173623.0, 173633.0, 173643.0, 173653.0, 173663.0, 173673.0, 173683.0, 173693.0, 173703.0, 173713.0, 173723.0, 173733.0, 173743.0, 173753.0, 173763.0, 173773.0, 173783.0, 173793.0, 173803.0, 173813.0, 173823.0, 173833.0, 173843.0, 173853.0, 173863.0, 173873.0, 173883.0, 173893.0, 173903.0, 173913.0, 173923.0, 173933.0, 173943.0, 173953.0, 173963.0, 173973.0, 173983.0, 173993.0, 174003.0, 174013.0, 174023.0, 174033.0, 174043.0, 174053.0, 174063.0, 174073.0, 174083.0, 174093.0, 174103.0, 174113.0, 174123.0, 174133.0, 174143.0, 174153.0, 174163.0, 174173.0, 174183.0, 174193.0, 174203.0, 174213.0, 174223.0, 174233.0, 174243.0, 174253.0, 174263.0, 174273.0, 174283.0, 174293.0, 174303.0, 174313.0, 174323.0, 174333.0, 174343.0, 174349]","example_experiment","17","13495","17","yes","768","4","[0, 0, 0, 0, 0, 0, 0, 0, 0, 0, 0, 0, 0, 0, 0, 0, 0, 0, 0, 0, 0, 0, 0, 0, 0, 0]","[0, 0, 0, 0, 0, 0, 0, 0, 0, 0, 0, 0, 0, -1, -6, -13, -23, -39, -56, -78, -98, -120, -139, -160, -179, -196, -212, -228, -243, -256, -264, -268, -269, -269, -269, -261, -243, -215, -177, -129, -78, -22, 38, 96, 148, 197, 236, 267, 293, 309, 319, 322, 322, 322, 319, 314, 307, 298, 290, 281, 273, 267, 262, 258, 256, 255, 255, 255, 255, 255, 255, 255, 255, 255, 256, 258, 261, 267, 272, 279, 286, 292, 298, 303, 308, 313, 318, 322, 326, 330, 333, 335, 335, 335, 335, 335, 335, 335, 335]","[0, 0, 0, 0, 0, 0, 0, 0, 0, 0, 0, 0, 0, 0, 0, 0, 0, 0, 0, 0, 0, 0, 0, 0, 0, 0]","[0, 0, 0, 0, 0, 0, 0, 0, 0, 0, 0, 0, 0, 0, -1, -1, -3, -4, -5, -6, -6, -7, -8, -9, -11, -13, -15, -16, -18, -19, -19, -19, -19, -19, -19, -19, -19, -19, -19, -19, -18, -17, -14, -12, -10, -8, -8, -6, -5, -3, -2, -2, -2, -2, -2, -2, -4, -5, -7, -9, -10, -11, -12, -12, -12, -12, -12, -12, -12, -12, -12, -12, -12, -12, -12, -12, -12, -12, -12, -12, -11, -11, -9, -9, -8, -7, -6, -5, -5, -4, -3, -3, -2, -2, -2, -2, -2, -2, -2]"
"100","100","777.055555556","777.055555556","black","no","prac","3","legacy","legacy","y.png","w.png","w.png","w.png","2","legacy","0","relative","1","undefined","NA","yellow","NA","undefined","1","undefined","undefined","yellow","4","0","3","0","19","0","NA","19","19","19","19","19","0","19","19","19","19","0","4","NA","NA","19","0","0","0","0","0","0","0","19","12/24/20 10:02:09","Default description","yes","simont_HV.osexp","C:\Users\admin\Desktop\임채은\!MouseTracking_final","no","sans","no","18","no","black","no","yes","768","30","None","30","0","legacy","19","19","2","C:/Users/admin/Desktop/임채은/!MouseTracking_final/subject-42.csv","legacy","1","2","2","Kafkaesque Koffka","3.2.6","0","yellow","space","NA","None","yellow","start","space","NA","NA","NA","NA","492","109586","NA","250","492","438","5451","NA","NA","NA","NA","2","legacy","1024","2","48000","-16","experiment","42","even","legacy","red","green","blue","yellow","2","6988","NA","NA","177162","1531","NA","175916","176418","176670","175476","120920","1536","177166","178166","176418","176670","NA","NA","NA","NA","175476","NA","NA","NA","NA","NA","NA","116574","175475","[176419.0, 176429.0, 176439.0, 176449.0, 176459.0, 176469.0, 176479.0, 176489.0, 176499.0, 176509.0, 176519.0, 176529.0, 176539.0, 176549.0, 176559.0, 176569.0, 176579.0, 176589.0, 176599.0, 176609.0, 176619.0, 176629.0, 176639.0, 176649.0, 176659.0, 176669.0]","[176670.0, 176680.0, 176690.0, 176700.0, 176710.0, 176720.0, 176730.0, 176740.0, 176750.0, 176760.0, 176770.0, 176780.0, 176790.0, 176800.0, 176810.0, 176820.0, 176830.0, 176840.0, 176850.0, 176860.0, 176870.0, 176880.0, 176890.0, 176900.0, 176910.0, 176920.0, 176930.0, 176940.0, 176950.0, 176960.0, 176970.0, 176980.0, 176990.0, 177000.0, 177010.0, 177020.0, 177030.0, 177040.0, 177050.0, 177060.0, 177070.0, 177080.0, 177090.0, 177100.0, 177110.0, 177120.0, 177130.0, 177140.0, 177150.0, 177160.0, 177162]","example_experiment","18","13987","18","yes","768","3","[0, 0, 0, 0, 0, 0, 0, 0, 0, 0, 0, 0, 0, 0, 0, 0, 0, 0, 0, 0, 0, 0, 0, 0, 0, 0]","[0, 0, 0, 0, 0, 0, 0, 1, 3, 5, 7, 10, 13, 16, 20, 24, 29, 33, 36, 39, 40, 41, 41, 41, 41, 40, 39, 37, 36, 35, 34, 33, 33, 33, 32, 32, 32, 30, 27, 25, 22, 20, 19, 17, 16, 15, 15, 14, 13, 12, 12]","[0, 0, 0, 0, 0, 0, 0, 0, 0, 0, 0, 0, 0, 0, 0, 0, 0, 0, 0, 0, 0, 0, 0, 0, 0, 0]","[0, 0, 0, 0, 3, 8, 14, 22, 30, 40, 53, 65, 81, 98, 118, 147, 174, 194, 213, 228, 243, 257, 269, 279, 288, 295, 301, 306, 309, 312, 313, 315, 315, 315, 315, 315, 315, 314, 313, 313, 312, 312, 311, 311, 310, 310, 310, 310, 310, 310, 310]"
"100","100","758.315789474","758.315789474","black","no","prac","2","legacy","legacy","w.png","w.png","r.png","w.png","1","legacy","0","relative","1","undefined","NA","red","NA","undefined","1","undefined","undefined","red","1","0","3","0","20","0","NA","20","20","20","20","20","0","20","20","20","20","0","4","NA","NA","20","0","0","0","0","0","0","0","20","12/24/20 10:02:09","Default description","yes","simont_HV.osexp","C:\Users\admin\Desktop\임채은\!MouseTracking_final","no","sans","no","18","no","black","no","yes","768","90","None","90","10","legacy","20","20","2","C:/Users/admin/Desktop/임채은/!MouseTracking_final/subject-42.csv","legacy","2","1","2","Kafkaesque Koffka","3.2.6","0","red","space","NA","None","red","start","space","NA","NA","NA","NA","421","109586","NA","250","421","271","5451","NA","NA","NA","NA","2","legacy","1024","2","48000","-16","experiment","42","even","legacy","red","green","blue","yellow","1","6988","NA","NA","179735","1531","NA","178558","179062","179314","178286","120920","1536","179746","180746","179062","179314","NA","NA","NA","NA","178285","NA","NA","NA","NA","NA","NA","116574","178284","[179063.0, 179073.0, 179083.0, 179093.0, 179103.0, 179113.0, 179123.0, 179133.0, 179143.0, 179153.0, 179163.0, 179173.0, 179183.0, 179193.0, 179203.0, 179213.0, 179223.0, 179233.0, 179243.0, 179253.0, 179263.0, 179273.0, 179283.0, 179293.0, 179303.0, 179313.0]","[179314.0, 179324.0, 179334.0, 179344.0, 179354.0, 179364.0, 179374.0, 179384.0, 179394.0, 179404.0, 179414.0, 179424.0, 179434.0, 179444.0, 179454.0, 179464.0, 179474.0, 179484.0, 179494.0, 179504.0, 179514.0, 179524.0, 179534.0, 179544.0, 179554.0, 179564.0, 179574.0, 179584.0, 179594.0, 179604.0, 179614.0, 179624.0, 179634.0, 179644.0, 179654.0, 179664.0, 179674.0, 179684.0, 179694.0, 179704.0, 179714.0, 179724.0, 179734.0, 179735]","example_experiment","19","14408","19","yes","768","4","[0, 0, 0, 0, 0, 0, 0, 0, 0, 0, 0, 0, 0, 0, 0, 0, 0, 0, 0, 0, 0, 0, 0, 0, 0, 0]","[0, 0, 0, 0, 0, 0, 0, 0, 0, 0, -5, -13, -23, -36, -52, -69, -87, -103, -120, -138, -156, -171, -190, -210, -227, -248, -265, -280, -294, -302, -310, -314, -315, -315, -315, -315, -315, -315, -315, -315, -315, -315, -315, -315]","[0, 0, 0, 0, 0, 0, 0, 0, 0, 0, 0, 0, 0, 0, 0, 0, 0, 0, 0, 0, 0, 0, 0, 0, 0, 0]","[0, 0, 0, 0, 0, 0, 0, 0, 0, 0, 0, 0, 0, 0, 0, 0, 0, 0, 0, 0, 0, -2, -3, -5, -6, -8, -10, -11, -11, -11, -12, -12, -12, -12, -12, -12, -12, -12, -12, -12, -12, -12, -12, -12]"
"100","100","757.35","757.35","black","no","prac","4","legacy","legacy","w.png","w.png","w.png","y.png","2","legacy","0","relative","1","undefined","NA","yellow","NA","undefined","1","undefined","undefined","yellow","4","0","3","0","21","0","NA","21","21","21","21","21","0","21","21","21","21","0","4","NA","NA","21","0","0","0","0","0","0","0","21","12/24/20 10:02:09","Default description","yes","simont_HV.osexp","C:\Users\admin\Desktop\임채은\!MouseTracking_final","no","sans","no","18","no","black","no","yes","768","50","None","50","None","legacy","21","21","1","C:/Users/admin/Desktop/임채은/!MouseTracking_final/subject-42.csv","legacy","2","2","1","Kafkaesque Koffka","3.2.6","0","yellow","space","NA","None","yellow","start","space","NA","NA","NA","NA","739","109586","NA","250","739","445","5451","NA","NA","NA","NA","2","legacy","1024","2","48000","-16","experiment","42","even","legacy","red","green","blue","yellow","2","6988","NA","NA","182859","1531","NA","181364","181868","182120","180918","120920","1536","182886","183886","181868","182120","NA","NA","NA","NA","180918","NA","NA","NA","NA","NA","NA","116574","180917","[181869.0, 181879.0, 181889.0, 181899.0, 181909.0, 181919.0, 181929.0, 181939.0, 181949.0, 181959.0, 181969.0, 181979.0, 181989.0, 181999.0, 182009.0, 182019.0, 182029.0, 182039.0, 182049.0, 182059.0, 182069.0, 182079.0, 182089.0, 182099.0, 182109.0, 182119.0]","[182120.0, 182130.0, 182140.0, 182150.0, 182160.0, 182170.0, 182180.0, 182190.0, 182200.0, 182210.0, 182220.0, 182230.0, 182240.0, 182250.0, 182260.0, 182270.0, 182280.0, 182290.0, 182300.0, 182310.0, 182320.0, 182330.0, 182340.0, 182350.0, 182360.0, 182370.0, 182380.0, 182390.0, 182400.0, 182410.0, 182420.0, 182430.0, 182440.0, 182450.0, 182460.0, 182470.0, 182480.0, 182490.0, 182500.0, 182510.0, 182520.0, 182530.0, 182540.0, 182550.0, 182560.0, 182570.0, 182580.0, 182590.0, 182600.0, 182610.0, 182620.0, 182630.0, 182640.0, 182650.0, 182660.0, 182670.0, 182680.0, 182690.0, 182700.0, 182710.0, 182720.0, 182730.0, 182740.0, 182750.0, 182760.0, 182770.0, 182780.0, 182790.0, 182800.0, 182810.0, 182820.0, 182830.0, 182840.0, 182850.0, 182859]","example_experiment","20","15147","20","yes","768","2","[0, 0, 0, 0, 0, 0, 0, 0, 0, 0, 0, 0, 0, 0, 0, 0, 0, 0, 0, 0, 0, 0, 0, 0, 0, 0]","[0, 0, 0, 0, 0, 0, 0, 0, 0, 0, -1, -1, -2, -2, -3, -4, -4, -4, -5, -5, -5, -5, -5, -5, -5, -5, -5, -5, -3, 2, 11, 21, 32, 40, 47, 53, 59, 64, 69, 76, 82, 89, 94, 98, 101, 103, 104, 104, 104, 102, 97, 90, 84, 75, 67, 59, 49, 40, 29, 21, 12, 4, -3, -9, -13, -16, -17, -18, -18, -18, -18, -18, -18, -18, -18]","[0, 0, 0, 0, 0, 0, 0, 0, 0, 0, 0, 0, 0, 0, 0, 0, 0, 0, 0, 0, 0, 0, 0, 0, 0, 0]","[0, 0, 0, 0, 0, 0, -1, -4, -6, -11, -15, -20, -26, -30, -35, -40, -44, -49, -55, -61, -68, -74, -81, -86, -91, -95, -97, -98, -98, -98, -94, -87, -74, -58, -39, -21, 4, 29, 49, 68, 81, 96, 106, 115, 123, 129, 134, 140, 146, 153, 161, 170, 179, 187, 195, 202, 213, 223, 236, 249, 263, 279, 292, 305, 315, 324, 331, 337, 342, 345, 347, 349, 349, 350, 350]"
"100","100","748.285714286","748.285714286","black","no","prac","4","legacy","legacy","w.png","g.png","w.png","w.png","2","legacy","0","relative","1","undefined","NA","green","NA","undefined","1","undefined","undefined","green","2","0","3","0","22","0","NA","22","22","22","22","22","0","22","22","22","22","0","4","NA","NA","22","0","0","0","0","0","0","0","22","12/24/20 10:02:09","Default description","yes","simont_HV.osexp","C:\Users\admin\Desktop\임채은\!MouseTracking_final","no","sans","no","18","no","black","no","yes","768","0","230","0","None","legacy","22","22","1","C:/Users/admin/Desktop/임채은/!MouseTracking_final/subject-42.csv","legacy","2","2","2","Kafkaesque Koffka","3.2.6","0","green","space","NA","None","green","start","space","NA","NA","NA","NA","567","109586","NA","250","567","447","5451","NA","NA","NA","NA","2","legacy","1024","2","48000","-16","experiment","42","even","legacy","red","green","blue","yellow","1","6988","NA","NA","185781","1531","NA","184458","184962","185214","184009","120920","1536","185786","186786","184962","185214","NA","NA","NA","NA","184009","NA","NA","NA","NA","NA","NA","116574","184008","[184963.0, 184973.0, 184983.0, 184993.0, 185003.0, 185013.0, 185023.0, 185033.0, 185043.0, 185053.0, 185063.0, 185073.0, 185083.0, 185093.0, 185103.0, 185113.0, 185123.0, 185133.0, 185143.0, 185153.0, 185163.0, 185173.0, 185183.0, 185193.0, 185203.0, 185213.0]","[185214.0, 185224.0, 185234.0, 185244.0, 185254.0, 185264.0, 185274.0, 185284.0, 185294.0, 185304.0, 185314.0, 185324.0, 185334.0, 185344.0, 185354.0, 185364.0, 185374.0, 185384.0, 185394.0, 185404.0, 185414.0, 185424.0, 185434.0, 185444.0, 185454.0, 185464.0, 185474.0, 185484.0, 185494.0, 185504.0, 185514.0, 185524.0, 185534.0, 185544.0, 185554.0, 185564.0, 185574.0, 185584.0, 185594.0, 185604.0, 185614.0, 185624.0, 185634.0, 185644.0, 185654.0, 185664.0, 185674.0, 185684.0, 185694.0, 185704.0, 185714.0, 185724.0, 185734.0, 185744.0, 185754.0, 185764.0, 185774.0, 185781]","example_experiment","21","15714","21","yes","768","4","[0, 0, 0, 0, 0, 0, 0, 0, 0, 0, 0, 0, 0, 0, 0, 0, 0, 0, 0, 0, 0, 0, 0, 0, -1, -5]","[-6, -9, -14, -19, -24, -30, -34, -39, -44, -50, -55, -59, -63, -66, -68, -68, -68, -68, -67, -61, -53, -40, -28, -12, 2, 22, 45, 70, 101, 129, 162, 192, 217, 242, 261, 278, 289, 295, 296, 296, 296, 296, 296, 296, 296, 296, 296, 296, 296, 296, 296, 296, 296, 296, 296, 296, 296, 296]","[0, 0, 0, 0, 0, 0, 0, 0, 0, 0, 0, 0, 0, 0, 0, 0, 0, 0, 0, 0, 0, 0, 0, 0, 0, 0]","[0, 0, 0, 0, 0, 0, 1, 1, 1, 1, 1, 1, 1, 2, 2, 2, 2, 2, 2, 2, 2, 2, 2, 2, 1, 1, 1, 1, 1, 1, 2, 3, 4, 4, 4, 4, 4, 4, 2, 2, 1, 0, 0, 0, 0, 0, 0, 0, 0, 0, 0, 0, 0, 0, 0, 0, 0, 0]"
"100","100","737.772727273","737.772727273","black","no","prac","3","legacy","legacy","w.png","w.png","w.png","b.png","1","legacy","0","relative","1","undefined","NA","blue","NA","undefined","1","undefined","undefined","blue","3","0","3","0","23","0","NA","23","23","23","23","23","0","23","23","23","23","0","4","NA","NA","23","0","0","0","0","0","0","0","23","12/24/20 10:02:09","Default description","yes","simont_HV.osexp","C:\Users\admin\Desktop\임채은\!MouseTracking_final","no","sans","no","18","no","black","no","yes","768","0","None","0","None","legacy","23","23","1","C:/Users/admin/Desktop/임채은/!MouseTracking_final/subject-42.csv","legacy","1","2","2","Kafkaesque Koffka","3.2.6","0","blue","space","NA","None","blue","start","space","NA","NA","NA","NA","517","109586","NA","250","517","418","5451","NA","NA","NA","NA","2","legacy","1024","2","48000","-16","experiment","42","even","legacy","red","green","blue","yellow","2","6988","NA","NA","188586","1531","NA","187313","187817","188069","186894","120920","1536","188596","189596","187817","188069","NA","NA","NA","NA","186894","NA","NA","NA","NA","NA","NA","116574","186893","[187818.0, 187828.0, 187838.0, 187848.0, 187858.0, 187868.0, 187878.0, 187888.0, 187898.0, 187908.0, 187918.0, 187928.0, 187938.0, 187948.0, 187958.0, 187968.0, 187978.0, 187988.0, 187998.0, 188008.0, 188018.0, 188028.0, 188038.0, 188048.0, 188058.0, 188068.0]","[188069.0, 188079.0, 188089.0, 188099.0, 188109.0, 188119.0, 188129.0, 188139.0, 188149.0, 188159.0, 188169.0, 188179.0, 188189.0, 188199.0, 188209.0, 188219.0, 188229.0, 188239.0, 188249.0, 188259.0, 188269.0, 188279.0, 188289.0, 188299.0, 188309.0, 188319.0, 188329.0, 188339.0, 188349.0, 188359.0, 188369.0, 188379.0, 188389.0, 188399.0, 188409.0, 188419.0, 188429.0, 188439.0, 188449.0, 188459.0, 188469.0, 188479.0, 188489.0, 188499.0, 188509.0, 188519.0, 188529.0, 188539.0, 188549.0, 188559.0, 188569.0, 188579.0, 188586]","example_experiment","22","16231","22","yes","768","3","[0, 0, 0, 0, 0, 0, 0, 0, 0, 0, 0, 0, 0, 0, 0, 0, 0, 0, 0, 0, 0, 0, 0, 0, 0, 0]","[0, 0, 0, -1, -1, -2, -3, -3, -4, -5, -5, -6, -6, -6, -6, -6, -5, -4, -4, -3, -2, -2, -1, -1, 0, 0, 0, 0, 0, 0, 1, 1, 1, 2, 2, 3, 3, 3, 4, 4, 4, 5, 5, 5, 5, 5, 5, 5, 5, 5, 5, 5, 5]","[0, 0, 0, 0, 0, 0, 0, 0, 0, 0, 0, 0, 0, 0, 0, 0, 0, 0, 0, 0, 0, 0, 0, 0, 0, 0]","[0, -1, -5, -9, -15, -23, -30, -41, -51, -64, -78, -91, -104, -119, -131, -146, -160, -173, -185, -195, -206, -215, -223, -231, -237, -243, -247, -253, -256, -259, -261, -264, -266, -269, -271, -275, -279, -282, -286, -290, -293, -296, -299, -301, -303, -306, -307, -310, -311, -312, -312, -312, -312]"
"100","100","729.173913043","729.173913043","black","no","prac","1","legacy","legacy","w.png","r.png","w.png","w.png","1","legacy","0","relative","1","undefined","NA","red","NA","undefined","1","undefined","undefined","red","1","0","3","0","24","0","NA","24","24","24","24","24","0","24","24","24","24","0","4","NA","NA","24","0","0","0","0","0","0","0","24","12/24/20 10:02:09","Default description","yes","simont_HV.osexp","C:\Users\admin\Desktop\임채은\!MouseTracking_final","no","sans","no","18","no","black","no","yes","768","10","None","10","None","legacy","24","24","1","C:/Users/admin/Desktop/임채은/!MouseTracking_final/subject-42.csv","legacy","1","1","2","Kafkaesque Koffka","3.2.6","0","red","space","NA","None","red","start","space","NA","NA","NA","NA","540","109586","NA","250","540","298","5451","NA","NA","NA","NA","2","legacy","1024","2","48000","-16","experiment","42","even","legacy","red","green","blue","yellow","1","6988","NA","NA","191308","1531","NA","190013","190516","190768","189714","120920","1536","191326","192326","190516","190768","NA","NA","NA","NA","189714","NA","NA","NA","NA","NA","NA","116574","189712","[190517.0, 190527.0, 190537.0, 190547.0, 190557.0, 190567.0, 190577.0, 190587.0, 190597.0, 190607.0, 190617.0, 190627.0, 190637.0, 190647.0, 190657.0, 190667.0, 190677.0, 190687.0, 190697.0, 190707.0, 190717.0, 190727.0, 190737.0, 190747.0, 190757.0, 190767.0]","[190768.0, 190778.0, 190788.0, 190798.0, 190808.0, 190818.0, 190828.0, 190838.0, 190848.0, 190858.0, 190868.0, 190878.0, 190888.0, 190898.0, 190908.0, 190918.0, 190928.0, 190938.0, 190948.0, 190958.0, 190968.0, 190978.0, 190988.0, 190998.0, 191008.0, 191018.0, 191028.0, 191038.0, 191048.0, 191058.0, 191068.0, 191078.0, 191088.0, 191098.0, 191108.0, 191118.0, 191128.0, 191138.0, 191148.0, 191158.0, 191168.0, 191178.0, 191188.0, 191198.0, 191208.0, 191218.0, 191228.0, 191238.0, 191248.0, 191258.0, 191268.0, 191278.0, 191288.0, 191298.0, 191308.0, 191308]","example_experiment","23","16771","23","yes","768","3","[0, 0, 0, 0, 0, 0, 0, 0, 0, 0, 0, 0, 0, 0, 0, 0, 0, 0, 0, 0, 0, 0, 0, 0, 0, 0]","[0, 0, -2, -7, -15, -25, -34, -47, -59, -73, -87, -102, -120, -138, -156, -174, -193, -209, -223, -235, -248, -258, -266, -272, -277, -280, -282, -282, -282, -282, -282, -282, -284, -285, -286, -289, -291, -295, -298, -301, -305, -307, -309, -310, -311, -313, -314, -315, -317, -317, -319, -319, -319, -319, -319, -319]","[0, 0, 0, 0, 0, 0, 0, 0, 0, 0, 0, 0, 0, 0, 0, 0, 0, 0, 0, 0, 0, 0, 0, 0, 0, 0]","[0, 0, 0, -1, -1, -1, -2, -2, -3, -3, -5, -6, -9, -11, -14, -17, -20, -23, -25, -27, -29, -30, -31, -32, -32, -33, -33, -33, -33, -33, -33, -33, -33, -33, -31, -29, -26, -23, -20, -16, -13, -10, -8, -5, -4, -1, 1, 3, 5, 7, 8, 9, 9, 9, 9, 9]"
"100","100","739.5","739.5","black","no","prac","2","legacy","legacy","w.png","w.png","w.png","y.png","2","legacy","0","relative","1","undefined","NA","yellow","NA","undefined","1","undefined","undefined","yellow","4","0","3","0","25","0","NA","25","25","25","25","25","0","25","25","25","25","0","4","NA","NA","25","0","0","0","0","0","0","0","25","12/24/20 10:02:09","Default description","yes","simont_HV.osexp","C:\Users\admin\Desktop\임채은\!MouseTracking_final","no","sans","no","18","no","black","no","yes","768","50","None","50","None","legacy","25","25","1","C:/Users/admin/Desktop/임채은/!MouseTracking_final/subject-42.csv","legacy","2","1","1","Kafkaesque Koffka","3.2.6","0","yellow","space","NA","None","yellow","start","space","NA","NA","NA","NA","977","109586","NA","250","977","540","5451","NA","NA","NA","NA","2","legacy","1024","2","48000","-16","experiment","42","even","legacy","red","green","blue","yellow","2","6988","NA","NA","194721","1531","NA","192988","193492","193744","192447","120920","1536","194726","195726","193492","193744","NA","NA","NA","NA","192447","NA","NA","NA","NA","NA","NA","116574","192445","[193493.0, 193503.0, 193513.0, 193523.0, 193533.0, 193543.0, 193553.0, 193563.0, 193573.0, 193583.0, 193593.0, 193603.0, 193613.0, 193623.0, 193633.0, 193643.0, 193653.0, 193663.0, 193673.0, 193683.0, 193693.0, 193703.0, 193713.0, 193723.0, 193733.0, 193743.0]","[193744.0, 193754.0, 193764.0, 193774.0, 193784.0, 193794.0, 193804.0, 193814.0, 193824.0, 193834.0, 193844.0, 193854.0, 193864.0, 193874.0, 193884.0, 193894.0, 193904.0, 193914.0, 193924.0, 193934.0, 193944.0, 193954.0, 193964.0, 193974.0, 193984.0, 193994.0, 194004.0, 194014.0, 194024.0, 194034.0, 194044.0, 194054.0, 194064.0, 194074.0, 194084.0, 194094.0, 194104.0, 194114.0, 194124.0, 194134.0, 194144.0, 194154.0, 194164.0, 194174.0, 194184.0, 194194.0, 194204.0, 194214.0, 194224.0, 194234.0, 194244.0, 194254.0, 194264.0, 194274.0, 194284.0, 194294.0, 194304.0, 194314.0, 194324.0, 194334.0, 194344.0, 194354.0, 194364.0, 194374.0, 194384.0, 194394.0, 194404.0, 194414.0, 194421, 194431.0, 194441.0, 194451.0, 194461.0, 194471.0, 194481.0, 194491.0, 194501.0, 194511.0, 194521.0, 194531.0, 194541.0, 194551.0, 194561.0, 194571.0, 194581.0, 194591.0, 194601.0, 194611.0, 194621.0, 194631.0, 194641.0, 194651.0, 194661.0, 194671.0, 194681.0, 194691.0, 194701.0, 194711.0, 194721.0, 194721]","example_experiment","24","17748","24","yes","768","2","[0, 0, 0, 0, 0, 0, 0, 0, 0, 0, 0, 0, 0, 0, 0, 0, 0, 0, 0, 0, 0, 0, 0, 0, 0, 0]","[0, 0, 0, 0, 0, 0, 0, 0, 0, 0, 0, -1, -2, -2, -2, -2, -2, -2, -2, -2, -2, -2, -2, -2, -2, -2, -2, -2, -2, -2, -2, -1, 2, 4, 5, 7, 7, 7, 7, 5, 2, -2, -7, -12, -16, -20, -22, -23, -25, -27, -28, -29, -31, -33, -35, -37, -39, -41, -42, -42, -43, -43, -43, -43, -43, -43, -43, -43, -43, -43, -43, -43, -43, -43, -43, -43, -43, -43, -43, -43, -43, -42, -40, -39, -38, -35, -32, -30, -28, -25, -24, -21, -20, -18, -15, -14, -13, -11, -11, -11]","[0, 0, 0, 0, 0, 0, 0, 0, 0, 0, 0, 0, 0, 0, 0, 0, 0, 0, 0, 0, 0, 0, 0, 0, 0, 0]","[0, 0, 0, 0, 0, 0, -1, -3, -6, -8, -11, -16, -22, -29, -38, -48, -58, -70, -83, -95, -108, -120, -132, -143, -152, -158, -163, -164, -164, -162, -153, -140, -125, -107, -88, -66, -45, -18, 9, 39, 70, 99, 130, 159, 182, 203, 222, 239, 254, 269, 280, 290, 298, 305, 312, 317, 323, 327, 332, 336, 338, 340, 340, 340, 340, 340, 340, 340, 340, 340, 340, 340, 340, 340, 340, 340, 340, 340, 340, 340, 340, 339, 338, 337, 336, 334, 331, 328, 326, 323, 321, 318, 317, 315, 313, 311, 310, 309, 308, 308]"
"100","100","734.64","734.64","black","no","prac","3","legacy","legacy","w.png","w.png","g.png","w.png","2","legacy","0","relative","1","undefined","NA","green","NA","undefined","1","undefined","undefined","green","2","0","3","0","26","0","NA","26","26","26","26","26","0","26","26","26","26","0","4","NA","NA","26","0","0","0","0","0","0","0","26","12/24/20 10:02:09","Default description","yes","simont_HV.osexp","C:\Users\admin\Desktop\임채은\!MouseTracking_final","no","sans","no","18","no","black","no","yes","768","200","None","200","None","legacy","26","26","2","C:/Users/admin/Desktop/임채은/!MouseTracking_final/subject-42.csv","legacy","1","2","1","Kafkaesque Koffka","3.2.6","0","green","space","NA","None","green","start","space","NA","NA","NA","NA","618","109586","NA","250","618","245","5451","NA","NA","NA","NA","2","legacy","1024","2","48000","-16","experiment","42","even","legacy","red","green","blue","yellow","1","6988","NA","NA","197471","1531","NA","196097","196601","196853","195850","120920","1536","197476","198476","196601","196853","NA","NA","NA","NA","195850","NA","NA","NA","NA","NA","NA","116574","195849","[196602.0, 196612.0, 196622.0, 196632.0, 196642.0, 196652.0, 196662.0, 196672.0, 196682.0, 196692.0, 196702.0, 196712.0, 196722.0, 196732.0, 196742.0, 196752.0, 196762.0, 196772.0, 196782.0, 196792.0, 196802.0, 196812.0, 196822.0, 196832.0, 196842.0, 196852.0]","[196853.0, 196863.0, 196873.0, 196883.0, 196893.0, 196903.0, 196913.0, 196923.0, 196933.0, 196943.0, 196953.0, 196963.0, 196973.0, 196983.0, 196993.0, 197003.0, 197013.0, 197023.0, 197033.0, 197043.0, 197053.0, 197063.0, 197073.0, 197083.0, 197093.0, 197103.0, 197113.0, 197123.0, 197133.0, 197143.0, 197153.0, 197163.0, 197173.0, 197183.0, 197193.0, 197203.0, 197213.0, 197223.0, 197233.0, 197243.0, 197253.0, 197263.0, 197273.0, 197283.0, 197293.0, 197303.0, 197313.0, 197323.0, 197333.0, 197343.0, 197353.0, 197363.0, 197373.0, 197383.0, 197393.0, 197403.0, 197413.0, 197423.0, 197433.0, 197443.0, 197453.0, 197463.0, 197471]","example_experiment","25","18366","25","yes","768","1","[0, 0, 0, 0, 0, 0, 0, 0, 0, 0, 0, 0, 0, 0, 0, 0, 0, 0, 0, 0, 0, 0, 0, 0, 0, 0]","[0, 0, 0, 0, 0, 0, 0, 0, 0, 0, 0, 0, 0, 0, 0, 0, 0, 0, 0, 0, 0, 1, 6, 13, 22, 32, 46, 60, 77, 96, 117, 143, 172, 198, 225, 249, 269, 287, 300, 309, 314, 315, 315, 315, 315, 315, 315, 315, 315, 315, 314, 314, 314, 314, 314, 314, 314, 314, 314, 314, 314, 314, 314]","[0, 0, 0, 0, 0, 0, 0, 0, 0, 0, 0, 0, 0, 0, 0, 0, 0, 0, 0, 0, 0, 0, 0, 0, 0, 0]","[0, 0, 0, 0, 0, 0, 0, 0, 0, 0, 0, 0, 0, 0, 0, 0, 0, 0, 0, 0, 0, 0, 0, -1, -2, -3, -4, -6, -7, -7, -7, -7, -7, -4, -2, 1, 3, 5, 8, 9, 10, 10, 11, 11, 11, 11, 11, 12, 12, 12, 12, 12, 12, 12, 12, 12, 12, 12, 12, 12, 12, 12, 12]"
"100","100","731.269230769","731.269230769","black","no","prac","2","legacy","legacy","b.png","w.png","w.png","w.png","1","legacy","0","relative","1","undefined","NA","blue","NA","undefined","1","undefined","undefined","blue","3","0","3","0","27","0","NA","27","27","27","27","27","0","27","27","27","27","0","4","NA","NA","27","0","0","0","0","0","0","0","27","12/24/20 10:02:09","Default description","yes","simont_HV.osexp","C:\Users\admin\Desktop\임채은\!MouseTracking_final","no","sans","no","18","no","black","no","yes","768","90","None","90","90","legacy","27","27","2","C:/Users/admin/Desktop/임채은/!MouseTracking_final/subject-42.csv","legacy","2","1","2","Kafkaesque Koffka","3.2.6","0","blue","space","NA","None","blue","start","space","NA","NA","NA","NA","647","109586","NA","250","647","296","5451","NA","NA","NA","NA","2","legacy","1024","2","48000","-16","experiment","42","even","legacy","red","green","blue","yellow","2","6988","NA","NA","200294","1531","NA","198892","199395","199647","198595","120920","1536","200306","201306","199395","199647","NA","NA","NA","NA","198595","NA","NA","NA","NA","NA","NA","116574","198593","[199396.0, 199406.0, 199416.0, 199426.0, 199436.0, 199446.0, 199456.0, 199466.0, 199476.0, 199486.0, 199496.0, 199506.0, 199516.0, 199526.0, 199536.0, 199546.0, 199556.0, 199566.0, 199576.0, 199586.0, 199596.0, 199606.0, 199616.0, 199626.0, 199636.0, 199646.0]","[199647.0, 199657.0, 199667.0, 199677.0, 199687.0, 199697.0, 199707.0, 199717.0, 199727.0, 199737.0, 199747.0, 199757.0, 199767.0, 199777.0, 199787.0, 199797.0, 199807.0, 199817.0, 199827.0, 199837.0, 199847.0, 199857.0, 199867.0, 199877.0, 199887.0, 199897.0, 199907.0, 199917.0, 199927.0, 199937.0, 199947.0, 199957.0, 199967.0, 199977.0, 199987.0, 199997.0, 200007.0, 200017.0, 200027.0, 200037.0, 200047.0, 200057.0, 200067.0, 200077.0, 200087.0, 200097.0, 200107.0, 200117.0, 200127.0, 200137.0, 200147.0, 200157.0, 200167.0, 200177.0, 200187.0, 200197.0, 200207.0, 200217.0, 200227.0, 200237.0, 200247.0, 200257.0, 200267.0, 200277.0, 200287.0, 200294]","example_experiment","26","19013","26","yes","768","4","[0, 0, 0, 0, 0, 0, 0, 0, 0, 0, 0, 0, 0, 0, 0, 0, 0, 0, 0, 0, 0, 0, 0, 0, 0, 0]","[0, 0, 0, 0, 0, 0, 0, 0, 0, 0, 0, 0, 0, 0, 0, 0, 0, 0, 0, 0, 1, 3, 5, 7, 10, 11, 13, 13, 13, 12, 10, 8, 6, 3, 0, -3, -4, -6, -7, -8, -8, -9, -9, -9, -9, -9, -9, -9, -9, -9, -9, -9, -8, -7, -6, -5, -4, -3, -3, -3, -3, -3, -3, -3, -3, -3]","[0, 0, 0, 0, 0, 0, 0, 0, 0, 0, 0, 0, 0, 0, 0, 0, 0, 0, 0, 0, 0, 0, 0, 0, 0, 0]","[0, 0, 0, 0, 0, 0, 0, 0, 0, 0, 2, 5, 9, 13, 17, 18, 18, 18, 18, 17, 10, 1, -10, -26, -44, -61, -78, -97, -119, -140, -159, -176, -195, -210, -225, -236, -247, -254, -261, -266, -270, -272, -273, -273, -273, -273, -273, -273, -273, -273, -274, -277, -280, -283, -287, -291, -294, -297, -300, -302, -304, -305, -306, -307, -307, -307]"
"100","100","736.703703704","736.703703704","black","no","prac","4","legacy","legacy","b.png","w.png","w.png","w.png","1","legacy","0","relative","1","undefined","NA","blue","NA","undefined","1","undefined","undefined","blue","3","0","3","0","28","0","NA","28","28","28","28","28","0","28","28","28","28","0","4","NA","NA","28","0","0","0","0","0","0","0","28","12/24/20 10:02:09","Default description","yes","simont_HV.osexp","C:\Users\admin\Desktop\임채은\!MouseTracking_final","no","sans","no","18","no","black","no","yes","768","80","None","80","None","legacy","28","28","2","C:/Users/admin/Desktop/임채은/!MouseTracking_final/subject-42.csv","legacy","2","2","2","Kafkaesque Koffka","3.2.6","0","blue","space","NA","None","blue","start","space","NA","NA","NA","NA","878","109586","NA","250","878","358","5451","NA","NA","NA","NA","2","legacy","1024","2","48000","-16","experiment","42","even","legacy","red","green","blue","yellow","2","6988","NA","NA","203402","1531","NA","201769","202273","202524","201409","120920","1536","203406","204406","202273","202524","NA","NA","NA","NA","201409","NA","NA","NA","NA","NA","NA","116574","201408","[202273.0, 202283.0, 202293.0, 202303.0, 202313.0, 202323.0, 202333.0, 202343.0, 202353.0, 202363.0, 202373.0, 202383.0, 202393.0, 202403.0, 202413.0, 202423.0, 202433.0, 202443.0, 202453.0, 202463.0, 202473.0, 202483.0, 202493.0, 202503.0, 202513.0, 202523.0]","[202524.0, 202534.0, 202544.0, 202554.0, 202564.0, 202574.0, 202584.0, 202594.0, 202604.0, 202614.0, 202624.0, 202634.0, 202644.0, 202654.0, 202664.0, 202674.0, 202684.0, 202694.0, 202704.0, 202714.0, 202724.0, 202734.0, 202744.0, 202754.0, 202764.0, 202774.0, 202784.0, 202794.0, 202804.0, 202814.0, 202824.0, 202834.0, 202844.0, 202854.0, 202864.0, 202874.0, 202884.0, 202894.0, 202904.0, 202914.0, 202924.0, 202934.0, 202944.0, 202954.0, 202964.0, 202974.0, 202984.0, 202994.0, 203004.0, 203014.0, 203024.0, 203034.0, 203044.0, 203054.0, 203064.0, 203074.0, 203084.0, 203094.0, 203104.0, 203114.0, 203124.0, 203134.0, 203144.0, 203154.0, 203164.0, 203174.0, 203184.0, 203194.0, 203204.0, 203214.0, 203224.0, 203234.0, 203244.0, 203254.0, 203264.0, 203274.0, 203284.0, 203294.0, 203304.0, 203314.0, 203324.0, 203334.0, 203344.0, 203354.0, 203364.0, 203374.0, 203384.0, 203394.0, 203402]","example_experiment","27","19891","27","yes","768","4","[0, 0, 0, 0, 0, 0, 0, 0, 0, 0, 0, 0, 0, 0, 0, 0, 0, 0, 0, 0, 0, 0, 0, 0, 0, 0]","[0, 0, 0, 0, 0, 0, 0, 0, 0, -1, -3, -5, -8, -9, -11, -13, -14, -15, -15, -15, -15, -15, -15, -15, -15, -7, 9, 34, 60, 89, 122, 151, 175, 196, 210, 220, 224, 225, 224, 221, 214, 206, 197, 188, 180, 172, 165, 157, 149, 144, 139, 134, 129, 123, 118, 111, 105, 98, 92, 86, 81, 77, 72, 68, 64, 60, 56, 51, 48, 44, 40, 36, 33, 30, 27, 24, 21, 19, 16, 13, 10, 8, 7, 7, 7, 7, 7, 7, 7]","[0, 0, 0, 0, 0, 0, 0, 0, 0, 0, 0, 0, 0, 0, 0, 0, 0, 0, 0, 0, 0, 0, 0, 0, 0, 0]","[0, 0, 0, 0, 0, 0, 0, 0, 0, 0, 1, 2, 4, 6, 9, 12, 14, 16, 18, 19, 19, 19, 19, 19, 19, 17, 13, 8, 3, -4, -13, -25, -35, -47, -58, -69, -78, -87, -98, -108, -119, -130, -140, -149, -159, -166, -173, -179, -185, -189, -193, -198, -203, -209, -215, -221, -228, -234, -240, -245, -249, -253, -257, -262, -267, -271, -275, -279, -283, -288, -293, -298, -303, -307, -311, -315, -318, -321, -325, -329, -332, -334, -335, -336, -336, -336, -336, -336, -336]"
"100","100","744.642857143","744.642857143","black","no","prac","3","legacy","legacy","w.png","w.png","g.png","w.png","2","legacy","0","relative","1","undefined","NA","green","NA","undefined","1","undefined","undefined","green","2","0","3","0","29","0","NA","29","29","29","29","29","0","29","29","29","29","0","4","NA","NA","29","0","0","0","0","0","0","0","29","12/24/20 10:02:09","Default description","yes","simont_HV.osexp","C:\Users\admin\Desktop\임채은\!MouseTracking_final","no","sans","no","18","no","black","no","yes","768","210","None","210","None","legacy","29","29","2","C:/Users/admin/Desktop/임채은/!MouseTracking_final/subject-42.csv","legacy","1","2","2","Kafkaesque Koffka","3.2.6","0","green","space","NA","None","green","start","space","NA","NA","NA","NA","959","109586","NA","250","959","396","5451","NA","NA","NA","NA","2","legacy","1024","2","48000","-16","experiment","42","even","legacy","red","green","blue","yellow","1","6988","NA","NA","206648","1531","NA","204933","205437","205689","204536","120920","1536","206666","207666","205437","205689","NA","NA","NA","NA","204536","NA","NA","NA","NA","NA","NA","116574","204534","[205438.0, 205448.0, 205458.0, 205468.0, 205478.0, 205488.0, 205498.0, 205508.0, 205518.0, 205528.0, 205538.0, 205548.0, 205558.0, 205568.0, 205578.0, 205588.0, 205598.0, 205608.0, 205618.0, 205628.0, 205638.0, 205648.0, 205658.0, 205668.0, 205678.0, 205688.0]","[205689.0, 205699.0, 205709.0, 205719.0, 205729.0, 205739.0, 205749.0, 205759.0, 205769.0, 205779.0, 205789.0, 205799.0, 205809.0, 205819.0, 205829.0, 205839.0, 205849.0, 205859.0, 205869.0, 205879.0, 205889.0, 205899.0, 205909.0, 205919.0, 205929.0, 205939.0, 205949.0, 205959.0, 205969.0, 205979.0, 205989.0, 205999.0, 206009.0, 206019.0, 206029.0, 206039.0, 206049.0, 206059.0, 206069.0, 206079.0, 206089.0, 206099.0, 206109.0, 206119.0, 206129.0, 206139.0, 206149.0, 206159.0, 206169.0, 206179.0, 206189.0, 206199.0, 206209.0, 206219.0, 206229.0, 206239.0, 206249.0, 206259.0, 206269.0, 206279.0, 206289.0, 206294, 206304.0, 206314.0, 206324.0, 206334.0, 206344.0, 206354.0, 206364.0, 206374.0, 206384.0, 206394.0, 206404.0, 206414.0, 206424.0, 206434.0, 206444.0, 206454.0, 206464.0, 206474.0, 206484.0, 206494.0, 206504.0, 206514.0, 206524.0, 206534.0, 206544.0, 206554.0, 206564.0, 206574.0, 206584.0, 206594.0, 206604.0, 206614.0, 206624.0, 206634.0, 206644.0, 206648]","example_experiment","28","20850","28","yes","768","3","[0, 0, 0, 0, 0, 0, 0, 0, 0, 0, 0, 0, 0, 0, 0, 0, 0, 0, 0, 0, 0, 0, 0, 0, 0, 0]","[0, 0, 0, 0, 0, 0, 0, 0, 0, 0, 0, 0, 0, 0, 0, 0, 0, 0, 0, 0, 0, 0, 1, 4, 11, 21, 37, 55, 77, 102, 126, 148, 169, 190, 211, 229, 244, 258, 268, 275, 279, 281, 281, 281, 281, 281, 281, 281, 281, 281, 281, 281, 281, 281, 281, 281, 281, 282, 282, 282, 282, 282, 282, 282, 282, 282, 282, 282, 282, 282, 282, 282, 282, 282, 282, 282, 282, 282, 282, 282, 282, 282, 283, 284, 285, 286, 289, 291, 293, 295, 296, 297, 297, 297, 297, 298, 298, 298]","[0, 0, 0, 0, 0, 0, 0, 0, 0, 0, 0, 0, 0, 0, 0, 0, 0, 0, 0, 0, 0, 0, 0, 0, 0, 0]","[0, 0, 0, 0, 0, 0, 0, 0, 0, 0, 0, 0, 0, 0, 0, 0, 0, 0, 0, 0, 0, 0, 0, 0, -1, -2, -2, -2, -2, -2, -2, -1, -1, 0, 1, 2, 4, 5, 6, 8, 8, 8, 9, 9, 9, 9, 9, 9, 9, 9, 9, 9, 9, 9, 9, 9, 9, 9, 9, 9, 9, 9, 9, 9, 9, 9, 9, 9, 9, 9, 9, 9, 8, 8, 8, 8, 8, 8, 8, 8, 8, 8, 8, 8, 8, 6, 6, 5, 4, 3, 3, 2, 2, 2, 2, 2, 2, 2]"
"100","100","729.413793103","729.413793103","black","no","block1","0","legacy","legacy","w.png","r.png","w.png","w.png","1","legacy","0","relative","1","undefined","NA","red","NA","undefined","1","undefined","undefined","red","1","0","3","0","30","0","NA","30","30","30","30","30","0","30","30","30","30","0","4","NA","NA","30","0","0","0","0","0","0","0","30","12/24/20 10:02:09","Default description","yes","simont_HV.osexp","C:\Users\admin\Desktop\임채은\!MouseTracking_final","no","sans","no","18","no","black","no","yes","768","0","150","0","0","legacy","0","29","1","C:/Users/admin/Desktop/임채은/!MouseTracking_final/subject-42.csv","legacy","1","0","0","Kafkaesque Koffka","3.2.6","0","red","space","NA","None","red","start","space","space","NA","NA","NA","303","109586","NA","250","303","721","5451","20274","NA","NA","NA","2","legacy","1024","2","48000","-16","experiment","42","even","legacy","red","green","blue","yellow","1","6988","NA","NA","229825","1531","NA","228766","229270","229522","228043","120920","1536","229836","230836","229270","229522","207708","NA","NA","NA","228043","227982","NA","NA","NA","NA","NA","116574","228042","[229271.0, 229281.0, 229291.0, 229301.0, 229311.0, 229321.0, 229331.0, 229341.0, 229351.0, 229361.0, 229371.0, 229381.0, 229391.0, 229401.0, 229411.0, 229421.0, 229431.0, 229441.0, 229451.0, 229461.0, 229471.0, 229481.0, 229491.0, 229501.0, 229511.0, 229521.0]","[229522.0, 229532.0, 229542.0, 229552.0, 229562.0, 229572.0, 229582.0, 229592.0, 229602.0, 229612.0, 229622.0, 229632.0, 229642.0, 229652.0, 229662.0, 229672.0, 229682.0, 229692.0, 229702.0, 229712.0, 229722.0, 229732.0, 229742.0, 229752.0, 229762.0, 229772.0, 229782.0, 229792.0, 229802.0, 229812.0, 229822.0, 229825]","example_experiment","29","21153","29","yes","768","0","[0, 0, 0, 0, 0, 0, 0, 0, 0, 0, 0, 0, 0, 0, 0, 0, -2, -6, -12, -17, -22, -27, -30, -32, -33, -36]","[-36, -42, -53, -69, -88, -109, -132, -156, -174, -192, -207, -221, -232, -246, -259, -268, -277, -283, -287, -290, -292, -294, -296, -298, -301, -304, -308, -311, -312, -312, -312, -312]","[0, 0, 0, 0, 0, 0, 0, 0, 0, 0, 0, 0, 0, 0, 0, 0, 0, 0, 0, 0, 0, 0, 0, 0, 0, 0]","[-1, -2, -2, -3, -4, -5, -5, -6, -6, -6, -6, -6, -7, -7, -7, -7, -7, -7, -7, -7, -7, -7, -7, -7, -7, -6, -5, -5, -5, -5, -5, -5]"
"100","100","722","722","black","no","block1","0","legacy","legacy","w.png","w.png","w.png","b.png","1","legacy","0","relative","1","undefined","NA","blue","NA","undefined","1","undefined","undefined","blue","3","0","3","0","31","0","NA","31","31","31","31","31","0","31","31","31","31","0","4","NA","NA","31","0","0","0","0","0","0","0","31","12/24/20 10:02:09","Default description","yes","simont_HV.osexp","C:\Users\admin\Desktop\임채은\!MouseTracking_final","no","sans","no","18","no","black","no","yes","768","20","None","20","None","legacy","1","29","1","C:/Users/admin/Desktop/임채은/!MouseTracking_final/subject-42.csv","legacy","1","1","0","Kafkaesque Koffka","3.2.6","0","blue","space","NA","None","blue","start","space","space","NA","NA","NA","507","109586","NA","250","507","390","5451","20274","NA","NA","NA","2","legacy","1024","2","48000","-16","experiment","42","even","legacy","red","green","blue","yellow","2","6988","NA","NA","232610","1531","NA","231347","231851","232103","230956","120920","1536","232626","233626","231851","232103","207708","NA","NA","NA","230956","227982","NA","NA","NA","NA","NA","116574","230954","[231852.0, 231862.0, 231872.0, 231882.0, 231892.0, 231902.0, 231912.0, 231922.0, 231932.0, 231942.0, 231952.0, 231962.0, 231972.0, 231982.0, 231992.0, 232002.0, 232012.0, 232022.0, 232032.0, 232042.0, 232052.0, 232062.0, 232072.0, 232082.0, 232092.0, 232102.0]","[232103.0, 232113.0, 232123.0, 232133.0, 232143.0, 232153.0, 232163.0, 232173.0, 232183.0, 232193.0, 232203.0, 232213.0, 232223.0, 232233.0, 232243.0, 232253.0, 232263.0, 232273.0, 232283.0, 232293.0, 232303.0, 232313.0, 232323.0, 232333.0, 232343.0, 232353.0, 232363.0, 232373.0, 232383.0, 232393.0, 232403.0, 232413.0, 232423.0, 232433.0, 232443.0, 232453.0, 232463.0, 232473.0, 232483.0, 232493.0, 232503.0, 232513.0, 232523.0, 232533.0, 232543.0, 232553.0, 232563.0, 232573.0, 232583.0, 232593.0, 232603.0, 232610]","example_experiment","30","21660","30","yes","768","0","[0, 0, 0, 0, 0, 0, 0, 0, 0, 0, 0, 0, 0, 0, 0, 0, 0, 0, 0, 0, 0, 0, 0, 0, 0, 0]","[0, 0, 0, 1, 1, 2, 3, 3, 4, 5, 6, 7, 10, 12, 15, 17, 21, 25, 28, 31, 33, 34, 34, 34, 33, 31, 30, 29, 27, 25, 23, 22, 20, 19, 17, 16, 15, 14, 13, 12, 12, 11, 10, 10, 10, 10, 10, 10, 10, 10, 10, 10]","[0, 0, 0, 0, 0, 0, 0, 0, 0, 0, 0, 0, 0, 0, 0, 0, 0, 0, 0, 0, 0, 0, 0, 0, 0, 0]","[0, 0, 0, -3, -6, -10, -16, -22, -29, -37, -46, -57, -70, -83, -99, -116, -134, -152, -172, -189, -203, -216, -227, -237, -246, -254, -262, -268, -274, -279, -284, -288, -290, -292, -294, -295, -296, -297, -298, -299, -300, -302, -302, -302, -302, -303, -303, -304, -305, -306, -306, -306]"
"100","100","714.967741935","714.967741935","black","no","block1","1","legacy","legacy","w.png","r.png","w.png","w.png","1","legacy","0","relative","1","undefined","NA","red","NA","undefined","1","undefined","undefined","red","1","0","3","0","32","0","NA","32","32","32","32","32","0","32","32","32","32","0","4","NA","NA","32","0","0","0","0","0","0","0","32","12/24/20 10:02:09","Default description","yes","simont_HV.osexp","C:\Users\admin\Desktop\임채은\!MouseTracking_final","no","sans","no","18","no","black","no","yes","768","20","None","20","None","legacy","2","29","1","C:/Users/admin/Desktop/임채은/!MouseTracking_final/subject-42.csv","legacy","1","1","1","Kafkaesque Koffka","3.2.6","0","red","space","NA","None","red","start","space","space","NA","NA","NA","504","109586","NA","250","504","237","5451","20274","NA","NA","NA","2","legacy","1024","2","48000","-16","experiment","42","even","legacy","red","green","blue","yellow","1","6988","NA","NA","235244","1531","NA","233984","234488","234740","233746","120920","1536","235256","236256","234488","234740","207708","NA","NA","NA","233746","227982","NA","NA","NA","NA","NA","116574","233745","[234489.0, 234499.0, 234509.0, 234519.0, 234529.0, 234539.0, 234549.0, 234559.0, 234569.0, 234579.0, 234589.0, 234599.0, 234609.0, 234619.0, 234629.0, 234639.0, 234649.0, 234659.0, 234669.0, 234679.0, 234689.0, 234699.0, 234709.0, 234719.0, 234729.0, 234739.0]","[234740.0, 234750.0, 234760.0, 234770.0, 234780.0, 234790.0, 234800.0, 234810.0, 234820.0, 234830.0, 234840.0, 234850.0, 234860.0, 234870.0, 234880.0, 234890.0, 234900.0, 234910.0, 234920.0, 234930.0, 234940.0, 234950.0, 234960.0, 234970.0, 234980.0, 234990.0, 235000.0, 235010.0, 235020.0, 235030.0, 235040.0, 235050.0, 235060.0, 235070.0, 235080.0, 235090.0, 235100.0, 235110.0, 235120.0, 235130.0, 235140.0, 235150.0, 235160.0, 235170.0, 235180.0, 235190.0, 235200.0, 235210.0, 235220.0, 235230.0, 235240.0, 235244]","example_experiment","31","22164","31","yes","768","1","[0, 0, 0, 0, 0, 0, 0, 0, 0, 0, 0, 0, 0, 0, 0, 0, 0, 0, 0, 0, 0, 0, 0, 0, 0, 0]","[0, 0, 0, -1, -4, -11, -22, -35, -51, -70, -92, -115, -136, -155, -175, -194, -212, -227, -239, -251, -259, -267, -273, -276, -278, -278, -278, -278, -278, -278, -278, -278, -278, -278, -278, -278, -278, -279, -280, -283, -288, -293, -301, -308, -314, -319, -324, -326, -328, -328, -328, -328]","[0, 0, 0, 0, 0, 0, 0, 0, 0, 0, 0, 0, 0, 0, 0, 0, 0, 0, 0, 0, 0, 0, 0, 0, 0, 0]","[0, 0, 0, 0, 0, 0, 0, 0, 0, 0, 0, 0, 0, 0, 0, 0, 0, -1, -2, -2, -3, -3, -4, -4, -4, -5, -5, -5, -5, -5, -5, -5, -5, -5, -5, -5, -5, -5, -5, -5, -5, -5, -5, -5, -5, -5, -4, -4, -4, -4, -4, -4]"
