"acc","accuracy","average_response_time","avg_rt","background","bidi","block","btwC","canvas_backend","clock_backend","colD","colL","colR","colU","color","color_backend","compensation","coordinates","correct","correct_answerins","correct_button_get_response_bef","correct_button_get_response_pos","correct_button_get_start_click","correct_get_response_bef","correct_get_response_pos","correct_get_start_click","correct_instructions","correct_resp","correctkey","count_answerins","count_break1","count_break3","count_correct_f","count_experiment","count_feedback","count_fixation500s","count_get_response_bef","count_get_response_pos","count_get_start_click","count_incorrect_f","count_instructions","count_iti1000","count_logger","count_present_stimulus","count_present_stimulus2","count_start_gogo","count_start_gogo_1","count_start_gogo_1_1","count_start_gogo_1_2","count_start_screen","count_stimuli1","count_stimuli2","count_stimuli3","count_stimuli4","count_stimuli5","count_stimuli6","count_stimuli_prac","count_trial","datetime","description","disable_garbage_collection","experiment_file","experiment_path","font_bold","font_family","font_italic","font_size","font_underline","foreground","form_clicks","fullscreen","height","initiation_time","initiation_time_get_response_bef","initiation_time_get_response_pos","initiation_time_get_start_click","keyboard_backend","live_row","live_row_stimuli_prac","loc","logfile","mouse_backend","n0","n1","n2","opensesame_codename","opensesame_version","repeat_cycle","response","response_answerins","response_feedback","response_get_response_bef","response_get_response_pos","response_get_start_click","response_instructions","response_start_gogo","response_start_gogo_1","response_start_gogo_1_1","response_start_gogo_1_2","response_time","response_time_answerins","response_time_feedback","response_time_get_response_bef","response_time_get_response_pos","response_time_get_start_click","response_time_instructions","response_time_start_gogo","response_time_start_gogo_1","response_time_start_gogo_1_1","response_time_start_gogo_1_2","round_decimals","sampler_backend","sound_buf_size","sound_channels","sound_freq","sound_sample_size","start","subject_nr","subject_parity","synth_backend","tar1L","tar2R","tar3U","tar4D","taskType","time_answerins","time_break1","time_break3","time_correct_f","time_experiment","time_feedback","time_fixation500s","time_get_response_bef","time_get_response_pos","time_get_start_click","time_incorrect_f","time_instructions","time_iti1000","time_logger","time_present_stimulus","time_present_stimulus2","time_start_gogo","time_start_gogo_1","time_start_gogo_1_1","time_start_gogo_1_2","time_start_screen","time_stimuli1","time_stimuli2","time_stimuli3","time_stimuli4","time_stimuli5","time_stimuli6","time_stimuli_prac","time_trial","timestamps_get_response_bef","timestamps_get_response_pos","title","total_correct","total_response_time","total_responses","uniform_coordinates","width","withC","xpos_get_response_bef","xpos_get_response_pos","ypos_get_response_bef","ypos_get_response_pos"
"100","100","660","660","black","no","prac","0","legacy","legacy","w.png","w.png","r.png","w.png","1","legacy","0","relative","1","undefined","NA","red","NA","undefined","1","undefined","undefined","red","1","0","3","0","0","0","NA","0","0","0","0","0","0","0","0","0","0","0","4","NA","NA","0","0","0","0","0","0","0","0","0","11/06/20 17:59:32","Default description","yes","simont_HV.osexp","C:\Users\admin\Desktop\임채은\!MouseTracking_final","no","sans","no","18","no","black","no","yes","768","140","None","140","0","legacy","0","0","2","C:/Users/admin/Desktop/임채은/!MouseTracking_final/subject-33.csv","legacy","2","0","0","Kafkaesque Koffka","3.2.6","0","red","space","NA","None","red","start","space","NA","NA","NA","NA","660","112080","NA","250","660","887","30987","NA","NA","NA","NA","2","legacy","1024","2","48000","-16","experiment","33","odd","legacy","red","green","blue","yellow","1","32457","NA","NA","146907","1464","NA","145490","145994","146246","144601","NA","1468","146912","147912","145994","146246","NA","NA","NA","NA","144601","NA","NA","NA","NA","NA","NA","144537","144599","[145995.0, 146005.0, 146015.0, 146025.0, 146035.0, 146045.0, 146055.0, 146065.0, 146075.0, 146085.0, 146095.0, 146105.0, 146115.0, 146125.0, 146135.0, 146145.0, 146155.0, 146165.0, 146175.0, 146185.0, 146195.0, 146205.0, 146215.0, 146225.0, 146235.0, 146245.0]","[146246.0, 146256.0, 146266.0, 146276.0, 146286.0, 146296.0, 146306.0, 146316.0, 146326.0, 146336.0, 146346.0, 146356.0, 146366.0, 146376.0, 146386.0, 146396.0, 146406.0, 146416.0, 146426.0, 146436.0, 146446.0, 146456.0, 146466.0, 146476.0, 146486.0, 146496.0, 146506.0, 146516.0, 146526.0, 146536.0, 146546.0, 146556.0, 146566.0, 146576.0, 146586.0, 146596.0, 146606.0, 146616.0, 146626.0, 146636.0, 146646.0, 146656.0, 146666.0, 146676.0, 146686.0, 146696.0, 146706.0, 146716.0, 146726.0, 146736.0, 146746.0, 146756.0, 146766.0, 146776.0, 146786.0, 146796.0, 146806.0, 146816.0, 146826.0, 146836.0, 146846.0, 146856.0, 146866.0, 146876.0, 146886.0, 146896.0, 146906.0, 146906]","example_experiment","1","660","1","yes","768","0","[0, 0, 0, 0, 0, 0, 0, 0, 0, 0, 0, 0, 0, 0, 0, 0, 0, 0, 0, 0, 0, 0, 0, 0, 0, 0]","[0, 0, 0, 0, 0, 0, 0, 0, 0, 0, 0, 0, 0, 0, 0, 0, -1, -6, -13, -23, -39, -62, -90, -120, -143, -161, -173, -182, -188, -192, -195, -200, -205, -209, -212, -214, -215, -216, -216, -216, -216, -216, -216, -218, -223, -230, -235, -239, -240, -241, -242, -243, -246, -250, -256, -263, -272, -281, -287, -291, -294, -297, -299, -302, -303, -303, -303, -303]","[0, 0, 0, 0, 0, 0, 0, 0, 0, 0, 0, 0, 0, 0, 0, 0, 0, 0, 0, 0, 0, 0, 0, 0, 0, 0]","[0, 0, 0, 0, 0, 0, 0, 0, 0, 0, 0, 0, 0, 0, 0, -1, -1, -2, -2, -3, -4, -4, -5, -7, -7, -7, -7, -7, -7, -7, -7, -7, -7, -7, -6, -4, -2, -1, 0, 0, 0, 0, 0, 0, -3, -5, -6, -6, -6, -6, -6, -6, -6, -6, -6, -6, -6, -6, -6, -6, -7, -7, -9, -9, -10, -10, -10, -10]"
"100","100","863","863","black","no","prac","0","legacy","legacy","w.png","w.png","w.png","b.png","1","legacy","0","relative","1","undefined","NA","blue","NA","undefined","1","undefined","undefined","blue","3","0","3","0","1","0","NA","1","1","1","1","1","0","1","1","1","1","0","4","NA","NA","1","0","0","0","0","0","0","0","1","11/06/20 17:59:32","Default description","yes","simont_HV.osexp","C:\Users\admin\Desktop\임채은\!MouseTracking_final","no","sans","no","18","no","black","no","yes","768","30","70","30","290","legacy","1","1","1","C:/Users/admin/Desktop/임채은/!MouseTracking_final/subject-33.csv","legacy","1","2","0","Kafkaesque Koffka","3.2.6","0","blue","space","NA","None","blue","start","space","NA","NA","NA","NA","1066","112080","NA","250","1066","955","30987","NA","NA","NA","NA","2","legacy","1024","2","48000","-16","experiment","33","odd","legacy","red","green","blue","yellow","2","32457","NA","NA","150816","1464","NA","148994","149497","149749","148037","NA","1468","150842","151842","149497","149749","NA","NA","NA","NA","148037","NA","NA","NA","NA","NA","NA","144537","148035","[149498.0, 149508.0, 149518.0, 149528.0, 149538.0, 149548.0, 149558.0, 149568.0, 149578.0, 149588.0, 149598.0, 149608.0, 149618.0, 149628.0, 149638.0, 149648.0, 149658.0, 149668.0, 149678.0, 149688.0, 149698.0, 149708.0, 149718.0, 149728.0, 149738.0, 149748.0]","[149749.0, 149759.0, 149769.0, 149779.0, 149789.0, 149799.0, 149809.0, 149819.0, 149829.0, 149839.0, 149849.0, 149859.0, 149869.0, 149879.0, 149889.0, 149899.0, 149909.0, 149919.0, 149929.0, 149939.0, 149949.0, 149959.0, 149969.0, 149979.0, 149989.0, 149999.0, 150009.0, 150019.0, 150029.0, 150039.0, 150049.0, 150059.0, 150069.0, 150079.0, 150089.0, 150099.0, 150109.0, 150119.0, 150129.0, 150139.0, 150149.0, 150159.0, 150169.0, 150179.0, 150189.0, 150199.0, 150209.0, 150219.0, 150229.0, 150239.0, 150249.0, 150259.0, 150269.0, 150279.0, 150289.0, 150299.0, 150309.0, 150319.0, 150329.0, 150339.0, 150349.0, 150359.0, 150369.0, 150379.0, 150389.0, 150399.0, 150409.0, 150419.0, 150429.0, 150439.0, 150449.0, 150459.0, 150469.0, 150479.0, 150489.0, 150499.0, 150509.0, 150519.0, 150529.0, 150539.0, 150549.0, 150559.0, 150569.0, 150579.0, 150589.0, 150599.0, 150609.0, 150619.0, 150629.0, 150639.0, 150649.0, 150659.0, 150669.0, 150679.0, 150689.0, 150699.0, 150709.0, 150719.0, 150729.0, 150739.0, 150749.0, 150759.0, 150769.0, 150779.0, 150789.0, 150799.0, 150809.0, 150815]","example_experiment","2","1726","2","yes","768","0","[0, 0, 0, 0, 0, 0, 0, 0, 0, 0, 0, 0, 0, 0, 0, 0, 1, 1, 1, 1, 1, 1, 1, 1, 1, 1]","[1, 1, 1, 1, 1, 0, -1, -2, -2, -3, -3, -3, -4, -4, -4, -4, -4, -4, -4, -4, -4, -4, -4, -5, -5, -5, -5, -5, -5, -5, -5, -5, -5, -5, -5, -5, -5, -5, -5, -5, -5, -5, -5, -5, -5, -5, -5, -6, -6, -6, -6, -6, -6, -6, -6, -6, -6, -7, -8, -9, -10, -10, -10, -10, -10, -10, -12, -16, -18, -20, -22, -25, -27, -30, -32, -33, -34, -34, -34, -34, -34, -34, -30, -25, -17, -9, -1, 4, 8, 10, 11, 11, 11, 11, 11, 12, 14, 16, 18, 19, 19, 19, 19, 19, 19, 19, 19, 19]","[0, 0, 0, 0, 0, 0, 0, 0, -1, -1, -2, -2, -2, -2, -2, -3, -3, -3, -4, -4, -4, -4, -4, -4, -4, -4]","[-4, -4, -4, -4, -5, -5, -6, -6, -6, -7, -8, -9, -10, -10, -11, -11, -11, -11, -11, -11, -11, -11, -8, -4, 0, 4, 6, 7, 8, 8, 8, 6, 4, 3, 2, 2, 2, 2, 2, 2, 2, 2, 2, 1, 1, 1, 1, 1, 1, 1, 0, 0, 0, 0, 0, 0, 0, -1, -4, -9, -19, -31, -46, -61, -76, -94, -113, -133, -151, -171, -187, -202, -214, -226, -233, -239, -240, -241, -241, -241, -241, -241, -243, -247, -253, -258, -264, -267, -270, -272, -273, -274, -276, -280, -283, -286, -287, -290, -291, -292, -292, -293, -293, -293, -293, -293, -293, -293]"
"100","100","798","798","black","no","prac","2","legacy","legacy","w.png","g.png","w.png","w.png","2","legacy","0","relative","1","undefined","NA","green","NA","undefined","1","undefined","undefined","green","2","0","3","0","2","0","NA","2","2","2","2","2","0","2","2","2","2","0","4","NA","NA","2","0","0","0","0","0","0","0","2","11/06/20 17:59:32","Default description","yes","simont_HV.osexp","C:\Users\admin\Desktop\임채은\!MouseTracking_final","no","sans","no","18","no","black","no","yes","768","110","None","110","330","legacy","2","2","1","C:/Users/admin/Desktop/임채은/!MouseTracking_final/subject-33.csv","legacy","2","1","2","Kafkaesque Koffka","3.2.6","0","green","space","NA","None","green","start","space","NA","NA","NA","NA","668","112080","NA","250","668","921","30987","NA","NA","NA","NA","2","legacy","1024","2","48000","-16","experiment","33","odd","legacy","red","green","blue","yellow","1","32457","NA","NA","154333","1464","NA","152908","153412","153664","151985","NA","1468","154362","155362","153412","153664","NA","NA","NA","NA","151985","NA","NA","NA","NA","NA","NA","144537","151983","[153413.0, 153423.0, 153433.0, 153443.0, 153453.0, 153463.0, 153473.0, 153483.0, 153493.0, 153503.0, 153513.0, 153523.0, 153533.0, 153543.0, 153553.0, 153563.0, 153573.0, 153583.0, 153593.0, 153603.0, 153613.0, 153623.0, 153633.0, 153643.0, 153653.0, 153663.0]","[153664.0, 153674.0, 153684.0, 153694.0, 153704.0, 153714.0, 153724.0, 153734.0, 153744.0, 153754.0, 153764.0, 153774.0, 153784.0, 153794.0, 153804.0, 153814.0, 153824.0, 153834.0, 153844.0, 153854.0, 153864.0, 153874.0, 153884.0, 153894.0, 153904.0, 153914.0, 153924.0, 153934.0, 153944.0, 153954.0, 153964.0, 153974.0, 153984.0, 153994.0, 154004.0, 154014.0, 154024.0, 154034.0, 154044.0, 154054.0, 154064.0, 154074.0, 154084.0, 154094.0, 154104.0, 154114.0, 154124.0, 154134.0, 154144.0, 154154.0, 154164.0, 154174.0, 154184.0, 154194.0, 154204.0, 154214.0, 154224.0, 154234.0, 154244.0, 154254.0, 154264.0, 154274.0, 154284.0, 154294.0, 154304.0, 154314.0, 154324.0, 154332]","example_experiment","3","2394","3","yes","768","4","[0, 0, 0, 0, 0, 0, 0, 0, 0, 0, 0, 0, 0, 0, 0, 0, 0, 0, 0, 0, 0, 0, 0, 0, 0, 0]","[0, 0, 0, 0, 0, 0, 0, 0, 0, 0, 0, 0, -1, -2, -3, -6, -9, -12, -15, -18, -19, -19, -19, -19, -19, -19, -18, -17, -14, -5, 10, 33, 66, 101, 140, 174, 203, 228, 250, 262, 267, 269, 269, 269, 269, 269, 267, 263, 259, 255, 252, 251, 251, 251, 251, 251, 253, 262, 273, 289, 307, 321, 334, 341, 344, 344, 344, 344]","[0, 0, 0, 0, 0, 0, 0, 0, 0, 0, 0, 0, 0, 0, 0, 0, 0, 0, 0, 0, 0, 0, 0, 0, 0, 0]","[0, 0, 0, 0, 0, 0, 0, 0, 0, 0, 0, 0, 0, -2, -2, -3, -3, -3, -3, -4, -4, -4, -4, -4, -4, -4, -4, -4, -4, -4, -4, -2, 2, 5, 7, 9, 10, 10, 10, 10, 10, 10, 10, 10, 10, 9, 8, 7, 6, 4, 4, 3, 3, 3, 3, 3, 2, 0, 0, 0, 1, 2, 3, 3, 3, 3, 3, 3]"
"100","100","732.75","732.75","black","no","prac","3","legacy","legacy","w.png","w.png","w.png","b.png","1","legacy","0","relative","1","undefined","NA","blue","NA","undefined","1","undefined","undefined","blue","3","0","3","0","3","0","NA","3","3","3","3","3","0","3","3","3","3","0","4","NA","NA","3","0","0","0","0","0","0","0","3","11/06/20 17:59:32","Default description","yes","simont_HV.osexp","C:\Users\admin\Desktop\임채은\!MouseTracking_final","no","sans","no","18","no","black","no","yes","768","130","None","130","190","legacy","3","3","1","C:/Users/admin/Desktop/임채은/!MouseTracking_final/subject-33.csv","legacy","1","2","1","Kafkaesque Koffka","3.2.6","0","blue","space","NA","None","blue","start","space","NA","NA","NA","NA","537","112080","NA","250","537","584","30987","NA","NA","NA","NA","2","legacy","1024","2","48000","-16","experiment","33","odd","legacy","red","green","blue","yellow","2","32457","NA","NA","157381","1464","NA","156087","156591","156843","155501","NA","1468","157412","158412","156591","156843","NA","NA","NA","NA","155501","NA","NA","NA","NA","NA","NA","144537","155499","[156592.0, 156602.0, 156612.0, 156622.0, 156632.0, 156642.0, 156652.0, 156662.0, 156672.0, 156682.0, 156692.0, 156702.0, 156712.0, 156722.0, 156732.0, 156742.0, 156752.0, 156762.0, 156772.0, 156782.0, 156792.0, 156802.0, 156812.0, 156822.0, 156832.0, 156842.0]","[156843.0, 156853.0, 156863.0, 156873.0, 156883.0, 156893.0, 156903.0, 156913.0, 156923.0, 156933.0, 156943.0, 156953.0, 156963.0, 156973.0, 156983.0, 156993.0, 157003.0, 157013.0, 157023.0, 157033.0, 157043.0, 157053.0, 157063.0, 157073.0, 157083.0, 157093.0, 157103.0, 157113.0, 157123.0, 157133.0, 157143.0, 157153.0, 157163.0, 157173.0, 157183.0, 157193.0, 157203.0, 157213.0, 157223.0, 157233.0, 157243.0, 157253.0, 157263.0, 157273.0, 157283.0, 157293.0, 157303.0, 157313.0, 157323.0, 157333.0, 157343.0, 157353.0, 157363.0, 157373.0, 157380]","example_experiment","4","2931","4","yes","768","1","[0, 0, 0, 0, 0, 0, 0, 0, 0, 0, 0, 0, 0, 0, 0, 0, 0, 0, 0, 0, 0, 0, 0, 0, 0, 0]","[0, 0, 0, 0, 0, 0, 0, 0, 0, 0, 0, 0, 0, 0, -1, -2, -4, -6, -6, -7, -7, -7, -7, -8, -8, -8, -8, -7, -7, -6, -6, -6, -6, -5, -5, -5, -5, -5, -5, -5, -5, -5, -4, -3, -2, -1, 1, 2, 2, 4, 4, 5, 6, 6, 6]","[0, 0, 0, 0, 0, 0, 0, 0, 0, 0, 0, 0, 0, 0, 0, 0, 0, 0, 0, 0, 0, 0, 0, 0, 0, 0]","[0, 0, 0, 0, 0, 0, 0, 0, 0, 0, 0, 0, 0, 0, -3, -9, -17, -26, -38, -50, -64, -83, -102, -122, -141, -157, -173, -191, -206, -222, -235, -246, -255, -260, -264, -266, -267, -268, -270, -271, -272, -273, -274, -275, -277, -279, -282, -285, -288, -290, -292, -294, -297, -298, -299]"
"100","100","701.8","701.8","black","no","prac","1","legacy","legacy","w.png","w.png","g.png","w.png","2","legacy","0","relative","1","undefined","NA","green","NA","undefined","1","undefined","undefined","green","2","0","3","0","4","0","NA","4","4","4","4","4","0","4","4","4","4","0","4","NA","NA","4","0","0","0","0","0","0","0","4","11/06/20 17:59:32","Default description","yes","simont_HV.osexp","C:\Users\admin\Desktop\임채은\!MouseTracking_final","no","sans","no","18","no","black","no","yes","768","170","10","170","None","legacy","4","4","2","C:/Users/admin/Desktop/임채은/!MouseTracking_final/subject-33.csv","legacy","1","1","2","Kafkaesque Koffka","3.2.6","0","green","space","NA","None","green","start","space","NA","NA","NA","NA","578","112080","NA","250","578","571","30987","NA","NA","NA","NA","2","legacy","1024","2","48000","-16","experiment","33","odd","legacy","red","green","blue","yellow","1","32457","NA","NA","160443","1464","NA","159111","159613","159864","158537","NA","1468","160462","161462","159612","159864","NA","NA","NA","NA","158537","NA","NA","NA","NA","NA","NA","144537","158536","[159613.0, 159623.0, 159633.0, 159643.0, 159653.0, 159663.0, 159673.0, 159683.0, 159693.0, 159703.0, 159713.0, 159723.0, 159733.0, 159743.0, 159753.0, 159763.0, 159773.0, 159783.0, 159793.0, 159803.0, 159813.0, 159823.0, 159833.0, 159843.0, 159853.0, 159863.0]","[159864.0, 159874.0, 159884.0, 159894.0, 159904.0, 159914.0, 159924.0, 159934.0, 159944.0, 159954.0, 159964.0, 159974.0, 159984.0, 159994.0, 160004.0, 160014.0, 160024.0, 160034.0, 160044.0, 160054.0, 160064.0, 160074.0, 160084.0, 160094.0, 160104.0, 160114.0, 160124.0, 160134.0, 160144.0, 160154.0, 160164.0, 160174.0, 160184.0, 160194.0, 160204.0, 160214.0, 160224.0, 160234.0, 160244.0, 160254.0, 160264.0, 160274.0, 160284.0, 160294.0, 160304.0, 160314.0, 160324.0, 160334.0, 160344.0, 160354.0, 160364.0, 160374.0, 160384.0, 160394.0, 160404.0, 160414.0, 160424.0, 160434.0, 160442]","example_experiment","5","3509","5","yes","768","3","[0, 0, -1, -1, -2, -2, -2, -2, -2, -2, -2, -2, -2, -2, -2, -2, -2, -2, -2, -2, -2, -2, -2, -2, -2, -2]","[-2, -2, -2, -2, -2, -2, -2, -2, -2, -2, -2, -2, -2, -2, -2, -2, -2, -2, 1, 8, 19, 34, 52, 70, 88, 110, 135, 162, 195, 224, 246, 259, 268, 271, 271, 271, 271, 271, 268, 264, 262, 261, 260, 260, 260, 260, 263, 266, 269, 273, 278, 285, 294, 302, 309, 316, 321, 322, 322]","[0, 0, 0, 0, 0, 0, 0, 0, 0, 0, 0, 0, 0, 0, 0, 0, 0, 0, 0, 0, 0, 0, 0, 0, 0, 0]","[0, 0, 0, 0, 0, 0, 0, 0, 0, 0, 0, 0, 0, 0, 0, 0, 0, 0, 0, 0, 1, 1, 1, 1, 2, 3, 5, 8, 9, 9, 9, 9, 9, 9, 9, 9, 8, 7, 6, 5, 4, 4, 4, 4, 3, 3, 1, 0, -1, -2, -2, -2, -2, -2, -2, -2, -2, -2, -2]"
"100","100","706.166666667","706.166666667","black","no","prac","1","legacy","legacy","y.png","w.png","w.png","w.png","2","legacy","0","relative","1","undefined","NA","yellow","NA","undefined","1","undefined","undefined","yellow","4","0","3","0","5","0","NA","5","5","5","5","5","0","5","5","5","5","0","4","NA","NA","5","0","0","0","0","0","0","0","5","11/06/20 17:59:32","Default description","yes","simont_HV.osexp","C:\Users\admin\Desktop\임채은\!MouseTracking_final","no","sans","no","18","no","black","no","yes","768","40","None","40","None","legacy","5","5","2","C:/Users/admin/Desktop/임채은/!MouseTracking_final/subject-33.csv","legacy","1","1","1","Kafkaesque Koffka","3.2.6","0","yellow","space","NA","None","yellow","start","space","NA","NA","NA","NA","728","112080","NA","250","728","459","30987","NA","NA","NA","NA","2","legacy","1024","2","48000","-16","experiment","33","odd","legacy","red","green","blue","yellow","2","32457","NA","NA","163520","1464","NA","162035","162539","162791","161574","NA","1468","163532","164532","162539","162791","NA","NA","NA","NA","161574","NA","NA","NA","NA","NA","NA","144537","161573","[162540.0, 162550.0, 162560.0, 162570.0, 162580.0, 162590.0, 162600.0, 162610.0, 162620.0, 162630.0, 162640.0, 162650.0, 162660.0, 162670.0, 162680.0, 162690.0, 162700.0, 162710.0, 162720.0, 162730.0, 162740.0, 162750.0, 162760.0, 162770.0, 162780.0, 162790.0]","[162791.0, 162801.0, 162811.0, 162821.0, 162831.0, 162841.0, 162851.0, 162861.0, 162871.0, 162881.0, 162891.0, 162901.0, 162911.0, 162921.0, 162931.0, 162941.0, 162951.0, 162961.0, 162971.0, 162981.0, 162991.0, 163001.0, 163011.0, 163021.0, 163031.0, 163041.0, 163051.0, 163061.0, 163071.0, 163081.0, 163091.0, 163101.0, 163111.0, 163121.0, 163131.0, 163141.0, 163151.0, 163161.0, 163171.0, 163181.0, 163191.0, 163201.0, 163211.0, 163221.0, 163231.0, 163241.0, 163251.0, 163261.0, 163271.0, 163281.0, 163291.0, 163301.0, 163311.0, 163321.0, 163331.0, 163341.0, 163351.0, 163361.0, 163371.0, 163381.0, 163391.0, 163401.0, 163411.0, 163421.0, 163431.0, 163441.0, 163451.0, 163461.0, 163471.0, 163481.0, 163491.0, 163501.0, 163511.0, 163519]","example_experiment","6","4237","6","yes","768","1","[0, 0, 0, 0, 0, 0, 0, 0, 0, 0, 0, 0, 0, 0, 0, 0, 0, 0, 0, 0, 0, 0, 0, 0, 0, 0]","[0, 0, 0, 0, 0, 0, 0, 0, 0, 0, 0, 0, 0, 0, 0, 0, 0, 0, 0, 0, 0, 0, 0, 0, 0, 0, 0, 0, 0, 0, 1, 2, 2, 1, -1, -4, -5, -5, -5, -7, -10, -12, -13, -14, -14, -14, -14, -14, -14, -14, -14, -14, -14, -14, -14, -14, -14, -12, -9, -7, -4, -3, -2, -2, -2, -2, -2, -2, -3, -4, -5, -5, -6, -6]","[0, 0, 0, 0, 0, 0, 0, 0, 0, 0, 0, 0, 0, 0, 0, 0, 0, 0, 0, 0, 0, 0, 0, 0, 0, 0]","[0, 0, 0, 0, 0, 1, 3, 5, 7, 9, 10, 10, 10, 10, 10, 10, 10, 10, 10, 10, 10, 10, 10, 10, 10, 10, 10, 10, 13, 19, 27, 39, 50, 61, 77, 97, 123, 149, 180, 211, 234, 252, 259, 262, 263, 263, 263, 261, 258, 254, 252, 249, 246, 243, 242, 242, 242, 242, 245, 249, 253, 257, 261, 266, 271, 277, 283, 289, 292, 294, 294, 295, 295, 295]"
"100","100","684","684","black","no","prac","2","legacy","legacy","w.png","w.png","r.png","w.png","1","legacy","0","relative","1","undefined","NA","red","NA","undefined","1","undefined","undefined","red","1","0","3","0","6","0","NA","6","6","6","6","6","0","6","6","6","6","0","4","NA","NA","6","0","0","0","0","0","0","0","6","11/06/20 17:59:32","Default description","yes","simont_HV.osexp","C:\Users\admin\Desktop\임채은\!MouseTracking_final","no","sans","no","18","no","black","no","yes","768","80","None","80","280","legacy","6","6","2","C:/Users/admin/Desktop/임채은/!MouseTracking_final/subject-33.csv","legacy","2","1","1","Kafkaesque Koffka","3.2.6","0","red","space","NA","None","red","start","space","NA","NA","NA","NA","551","112080","NA","250","551","475","30987","NA","NA","NA","NA","2","legacy","1024","2","48000","-16","experiment","33","odd","legacy","red","green","blue","yellow","1","32457","NA","NA","166422","1464","NA","165116","165618","165870","164639","NA","1468","166432","167432","165618","165870","NA","NA","NA","NA","164639","NA","NA","NA","NA","NA","NA","144537","164637","[165619.0, 165629.0, 165639.0, 165649.0, 165659.0, 165669.0, 165679.0, 165689.0, 165699.0, 165709.0, 165719.0, 165729.0, 165739.0, 165749.0, 165759.0, 165769.0, 165779.0, 165789.0, 165799.0, 165809.0, 165819.0, 165829.0, 165839.0, 165849.0, 165859.0, 165869.0]","[165870.0, 165880.0, 165890.0, 165900.0, 165910.0, 165920.0, 165930.0, 165940.0, 165950.0, 165960.0, 165970.0, 165980.0, 165990.0, 166000.0, 166010.0, 166020.0, 166030.0, 166040.0, 166050.0, 166060.0, 166070.0, 166080.0, 166090.0, 166100.0, 166110.0, 166120.0, 166130.0, 166140.0, 166150.0, 166160.0, 166170.0, 166180.0, 166190.0, 166200.0, 166210.0, 166220.0, 166230.0, 166240.0, 166250.0, 166260.0, 166270.0, 166280.0, 166290.0, 166300.0, 166310.0, 166320.0, 166330.0, 166340.0, 166350.0, 166360.0, 166370.0, 166380.0, 166390.0, 166400.0, 166410.0, 166420.0, 166421]","example_experiment","7","4788","7","yes","768","2","[0, 0, 0, 0, 0, 0, 0, 0, 0, 0, 0, 0, 0, 0, 0, 0, 0, 0, 0, 0, 0, 0, 0, 0, 0, 0]","[0, 0, 0, 0, 0, 0, 0, 0, 0, 0, -4, -9, -17, -25, -38, -57, -80, -107, -140, -165, -188, -205, -222, -234, -245, -255, -260, -262, -262, -262, -262, -262, -262, -262, -262, -261, -258, -256, -254, -254, -254, -254, -254, -254, -254, -254, -256, -262, -271, -283, -295, -306, -312, -317, -319, -319, -319]","[0, 0, 0, 0, 0, 0, 0, 0, 0, 0, 0, 0, 0, 0, 0, 0, 0, 0, 0, 0, 0, 0, 0, 0, 0, 0]","[0, 0, 0, 0, 0, 0, 0, 0, 0, 1, 2, 5, 6, 8, 10, 10, 10, 10, 10, 12, 14, 15, 15, 15, 15, 15, 16, 16, 16, 16, 16, 16, 16, 16, 16, 15, 13, 11, 9, 7, 5, 4, 4, 4, 4, 4, 4, 4, 2, 0, -2, -4, -4, -5, -5, -5, -5]"
"100","100","673","673","black","no","prac","4","legacy","legacy","w.png","w.png","w.png","y.png","2","legacy","0","relative","1","undefined","NA","yellow","NA","undefined","1","undefined","undefined","yellow","4","0","3","0","7","0","NA","7","7","7","7","7","0","7","7","7","7","0","4","NA","NA","7","0","0","0","0","0","0","0","7","11/06/20 17:59:32","Default description","yes","simont_HV.osexp","C:\Users\admin\Desktop\임채은\!MouseTracking_final","no","sans","no","18","no","black","no","yes","768","90","None","90","None","legacy","7","7","1","C:/Users/admin/Desktop/임채은/!MouseTracking_final/subject-33.csv","legacy","2","2","1","Kafkaesque Koffka","3.2.6","0","yellow","space","NA","None","yellow","start","space","NA","NA","NA","NA","596","112080","NA","250","596","491","30987","NA","NA","NA","NA","2","legacy","1024","2","48000","-16","experiment","33","odd","legacy","red","green","blue","yellow","2","32457","NA","NA","169391","1464","NA","168040","168543","168794","167547","NA","1468","169402","170402","168542","168794","NA","NA","NA","NA","167547","NA","NA","NA","NA","NA","NA","144537","167546","[168543.0, 168553.0, 168563.0, 168573.0, 168583.0, 168593.0, 168603.0, 168613.0, 168623.0, 168633.0, 168643.0, 168653.0, 168663.0, 168673.0, 168683.0, 168693.0, 168703.0, 168713.0, 168723.0, 168733.0, 168743.0, 168753.0, 168763.0, 168773.0, 168783.0, 168793.0]","[168794.0, 168804.0, 168814.0, 168824.0, 168834.0, 168844.0, 168854.0, 168864.0, 168874.0, 168884.0, 168894.0, 168904.0, 168914.0, 168924.0, 168934.0, 168944.0, 168954.0, 168964.0, 168974.0, 168984.0, 168994.0, 169004.0, 169014.0, 169024.0, 169034.0, 169044.0, 169054.0, 169064.0, 169074.0, 169084.0, 169094.0, 169104.0, 169114.0, 169124.0, 169134.0, 169144.0, 169154.0, 169164.0, 169174.0, 169184.0, 169194.0, 169204.0, 169214.0, 169224.0, 169234.0, 169244.0, 169254.0, 169264.0, 169274.0, 169284.0, 169294.0, 169304.0, 169314.0, 169324.0, 169334.0, 169344.0, 169354.0, 169364.0, 169374.0, 169384.0, 169390]","example_experiment","8","5384","8","yes","768","2","[0, 0, 0, 0, 0, 0, 0, 0, 0, 0, 0, 0, 0, 0, 0, 0, 0, 0, 0, 0, 0, 0, 0, 0, 0, 0]","[0, 0, 0, 0, 0, 0, 0, 0, 0, 0, -1, -1, -2, -3, -4, -4, -4, -4, -4, -4, -4, -4, -5, -7, -7, -7, -7, -6, -4, -4, -3, 1, 8, 18, 24, 26, 26, 26, 24, 23, 20, 17, 15, 12, 10, 9, 9, 8, 8, 8, 8, 8, 5, 2, -1, -3, -5, -7, -8, -8, -8]","[0, 0, 0, 0, 0, 0, 0, 0, 0, 0, 0, 0, 0, 0, 0, 0, 0, 0, 0, 0, 0, 0, 0, 0, 0, 0]","[0, 0, 0, 0, 0, 0, 0, 0, 0, 0, 0, 0, 0, -1, -1, -2, -2, -2, -2, -2, -2, -2, 1, 6, 14, 28, 52, 78, 115, 147, 172, 196, 214, 228, 237, 243, 247, 249, 250, 250, 252, 254, 257, 261, 264, 267, 270, 270, 271, 273, 275, 278, 284, 290, 296, 299, 302, 304, 305, 305, 305]"
"100","100","653.222222222","653.222222222","black","no","prac","3","legacy","legacy","w.png","r.png","w.png","w.png","1","legacy","0","relative","1","undefined","NA","red","NA","undefined","1","undefined","undefined","red","1","0","3","0","8","0","NA","8","8","8","8","8","0","8","8","8","8","0","4","NA","NA","8","0","0","0","0","0","0","0","8","11/06/20 17:59:32","Default description","yes","simont_HV.osexp","C:\Users\admin\Desktop\임채은\!MouseTracking_final","no","sans","no","18","no","black","no","yes","768","10","200","10","290","legacy","8","8","1","C:/Users/admin/Desktop/임채은/!MouseTracking_final/subject-33.csv","legacy","1","2","2","Kafkaesque Koffka","3.2.6","0","red","space","NA","None","red","start","space","NA","NA","NA","NA","495","112080","NA","250","495","358","30987","NA","NA","NA","NA","2","legacy","1024","2","48000","-16","experiment","33","odd","legacy","red","green","blue","yellow","1","32457","NA","NA","172129","1464","NA","170877","171381","171633","170516","NA","1468","172132","173132","171381","171633","NA","NA","NA","NA","170516","NA","NA","NA","NA","NA","NA","144537","170515","[171382.0, 171392.0, 171402.0, 171412.0, 171422.0, 171432.0, 171442.0, 171452.0, 171462.0, 171472.0, 171482.0, 171492.0, 171502.0, 171512.0, 171522.0, 171532.0, 171542.0, 171552.0, 171562.0, 171572.0, 171582.0, 171592.0, 171602.0, 171612.0, 171622.0, 171632.0]","[171633.0, 171643.0, 171653.0, 171663.0, 171673.0, 171683.0, 171693.0, 171703.0, 171713.0, 171723.0, 171733.0, 171743.0, 171753.0, 171763.0, 171773.0, 171783.0, 171793.0, 171803.0, 171813.0, 171823.0, 171833.0, 171843.0, 171853.0, 171863.0, 171873.0, 171883.0, 171893.0, 171903.0, 171913.0, 171923.0, 171933.0, 171943.0, 171953.0, 171963.0, 171973.0, 171983.0, 171993.0, 172003.0, 172013.0, 172023.0, 172033.0, 172043.0, 172053.0, 172063.0, 172073.0, 172083.0, 172093.0, 172103.0, 172113.0, 172123.0, 172128]","example_experiment","9","5879","9","yes","768","3","[0, 0, 0, 0, 0, 0, 0, 0, 0, 0, 0, 0, 0, 0, 0, 0, 0, 0, 0, 0, 0, 0, 0, 0, 0, 0]","[0, 0, -1, -1, -1, -2, -3, -3, -3, -5, -8, -15, -23, -34, -47, -63, -78, -95, -113, -135, -157, -182, -202, -217, -227, -235, -242, -248, -252, -256, -259, -262, -266, -270, -276, -280, -282, -282, -282, -282, -282, -282, -283, -284, -287, -290, -294, -296, -296, -297, -297]","[0, 0, 0, 0, 0, 0, 0, 0, 0, 0, 0, 0, 0, 0, 0, 0, 0, 0, 0, 0, 0, -1, -3, -3, -4, -4]","[-4, -4, -4, -4, -4, -5, -5, -5, -5, -5, -5, -5, -5, -5, -3, -1, 1, 2, 2, 2, 2, 1, 1, 1, 0, -1, -2, -3, -4, -4, -4, -4, -4, -4, -4, -4, -4, -4, -4, -4, -4, -4, -4, -3, -2, -2, -1, -1, -1, 0, 0]"
"90","90","759.9","759.9","black","no","prac","1","legacy","legacy","y.png","w.png","w.png","w.png","2","legacy","0","relative","0","undefined","NA","yellow","NA","undefined","0","undefined","undefined","yellow","4","0","3","0","9","0","NA","9","9","9","9","9","0","9","9","9","9","0","4","NA","NA","9","0","0","0","0","0","0","0","9","11/06/20 17:59:32","Default description","yes","simont_HV.osexp","C:\Users\admin\Desktop\임채은\!MouseTracking_final","no","sans","no","18","no","black","no","yes","768","90","None","90","None","legacy","9","9","2","C:/Users/admin/Desktop/임채은/!MouseTracking_final/subject-33.csv","legacy","1","1","2","Kafkaesque Koffka","3.2.6","0","green","space","NA","None","green","start","space","NA","NA","NA","NA","1720","112080","NA","250","1720","430","30987","NA","NA","NA","NA","2","legacy","1024","2","48000","-16","experiment","33","odd","legacy","red","green","blue","yellow","2","32457","NA","NA","172129","1464","NA","173676","174180","174432","173244","176153","1468","176292","177292","174180","174432","NA","NA","NA","NA","173244","NA","NA","NA","NA","NA","NA","144537","173243","[174181.0, 174191.0, 174201.0, 174211.0, 174221.0, 174231.0, 174241.0, 174251.0, 174261.0, 174271.0, 174281.0, 174291.0, 174301.0, 174311.0, 174321.0, 174331.0, 174341.0, 174351.0, 174361.0, 174371.0, 174381.0, 174391.0, 174401.0, 174411.0, 174421.0, 174431.0]","[174432.0, 174442.0, 174452.0, 174462.0, 174472.0, 174482.0, 174492.0, 174502.0, 174512.0, 174522.0, 174532.0, 174542.0, 174552.0, 174562.0, 174572.0, 174582.0, 174592.0, 174602.0, 174612.0, 174622.0, 174632.0, 174642.0, 174652.0, 174662.0, 174672.0, 174682.0, 174692.0, 174702.0, 174712.0, 174722.0, 174732.0, 174742.0, 174752.0, 174762.0, 174772.0, 174782.0, 174792.0, 174802.0, 174812.0, 174822.0, 174832.0, 174842.0, 174852.0, 174862.0, 174872.0, 174882.0, 174892.0, 174902.0, 174912.0, 174922.0, 174932.0, 174942.0, 174952.0, 174962.0, 174972.0, 174982.0, 174992.0, 175002.0, 175012.0, 175022.0, 175032.0, 175042.0, 175052.0, 175062.0, 175072.0, 175082.0, 175092.0, 175102.0, 175112.0, 175122.0, 175132.0, 175142.0, 175152.0, 175162.0, 175172.0, 175182.0, 175192.0, 175202.0, 175212.0, 175222.0, 175232.0, 175242.0, 175252.0, 175262.0, 175272.0, 175282.0, 175292.0, 175302.0, 175312.0, 175322.0, 175332.0, 175342.0, 175352.0, 175362.0, 175372.0, 175382.0, 175392.0, 175402.0, 175412.0, 175422.0, 175432.0, 175442.0, 175452.0, 175462.0, 175472.0, 175482.0, 175492.0, 175502.0, 175512.0, 175522.0, 175532.0, 175542.0, 175552.0, 175562.0, 175572.0, 175582.0, 175592.0, 175602.0, 175612.0, 175622.0, 175632.0, 175642.0, 175652.0, 175662.0, 175672.0, 175682.0, 175692.0, 175702.0, 175712.0, 175722.0, 175732.0, 175742.0, 175752.0, 175762.0, 175772.0, 175782.0, 175792.0, 175802.0, 175812.0, 175822.0, 175832.0, 175842.0, 175852.0, 175862.0, 175872.0, 175882.0, 175892.0, 175902.0, 175912.0, 175922.0, 175932.0, 175942.0, 175952.0, 175962.0, 175972.0, 175982.0, 175992.0, 176002.0, 176012.0, 176022.0, 176032.0, 176042.0, 176052.0, 176062.0, 176072.0, 176082.0, 176092.0, 176102.0, 176112.0, 176122.0, 176132.0, 176142.0, 176152.0, 176152]","example_experiment","9","7599","10","yes","768","3","[0, 0, 0, 0, 0, 0, 0, 0, 0, 0, 0, 0, 0, 0, 0, 0, 0, 0, 0, 0, 0, 0, 0, 0, 0, 0]","[0, 0, 0, 0, 0, 0, 0, 0, 0, 0, 0, 0, 0, 0, 0, 1, 3, 6, 9, 14, 19, 24, 29, 32, 35, 36, 37, 39, 42, 48, 58, 74, 96, 119, 139, 160, 176, 195, 213, 228, 242, 252, 258, 260, 261, 261, 261, 261, 261, 261, 258, 255, 252, 249, 248, 248, 247, 247, 247, 247, 248, 248, 248, 248, 249, 249, 249, 249, 249, 249, 249, 249, 249, 249, 250, 251, 251, 251, 252, 252, 252, 253, 254, 254, 254, 255, 255, 255, 257, 260, 267, 276, 284, 293, 300, 306, 311, 312, 313, 315, 316, 319, 322, 324, 326, 328, 329, 330, 330, 331, 331, 331, 331, 331, 331, 330, 329, 328, 327, 326, 326, 324, 323, 322, 321, 321, 321, 321, 321, 321, 321, 321, 321, 321, 321, 321, 321, 321, 321, 321, 321, 321, 321, 321, 321, 321, 321, 321, 321, 321, 321, 321, 321, 321, 321, 321, 321, 321, 321, 321, 321, 321, 321, 321, 321, 321, 321, 321, 321, 321, 321, 321, 321, 321]","[0, 0, 0, 0, 0, 0, 0, 0, 0, 0, 0, 0, 0, 0, 0, 0, 0, 0, 0, 0, 0, 0, 0, 0, 0, 0]","[0, 0, 0, 0, 0, 0, 0, 0, 0, 0, 1, 3, 8, 14, 24, 37, 52, 72, 90, 105, 114, 119, 123, 125, 127, 127, 128, 128, 129, 129, 129, 126, 121, 116, 111, 106, 103, 98, 95, 93, 91, 89, 88, 87, 86, 86, 85, 84, 82, 77, 72, 67, 63, 59, 58, 57, 56, 55, 53, 52, 51, 49, 48, 47, 45, 44, 42, 41, 41, 40, 40, 39, 38, 37, 35, 33, 31, 28, 26, 24, 23, 21, 21, 20, 20, 20, 20, 20, 19, 19, 19, 20, 21, 21, 21, 21, 21, 21, 21, 21, 21, 21, 20, 19, 17, 15, 13, 12, 10, 10, 9, 9, 9, 9, 8, 7, 6, 5, 5, 4, 3, 3, 2, 1, 1, 1, 1, 1, 1, 1, 1, 1, 1, 1, 1, 1, 1, 1, 1, 1, 1, 1, 1, 1, 1, 1, 1, 1, 1, 1, 1, 1, 1, 1, 1, 1, 1, 1, 1, 1, 1, 1, 1, 1, 1, 1, 1, 1, 1, 1, 1, 1, 1, 1]"
"90.9090909091","90.9090909091","750.545454545","750.545454545","black","no","prac","1","legacy","legacy","w.png","w.png","g.png","w.png","2","legacy","0","relative","1","undefined","NA","green","NA","undefined","1","undefined","undefined","green","2","0","3","0","10","0","NA","10","10","10","10","10","0","10","10","10","10","0","4","NA","NA","10","0","0","0","0","0","0","0","10","11/06/20 17:59:32","Default description","yes","simont_HV.osexp","C:\Users\admin\Desktop\임채은\!MouseTracking_final","no","sans","no","18","no","black","no","yes","768","270","170","270","10","legacy","10","10","2","C:/Users/admin/Desktop/임채은/!MouseTracking_final/subject-33.csv","legacy","1","1","1","Kafkaesque Koffka","3.2.6","0","green","space","NA","None","green","start","space","NA","NA","NA","NA","657","112080","NA","250","657","504","30987","NA","NA","NA","NA","2","legacy","1024","2","48000","-16","experiment","33","odd","legacy","red","green","blue","yellow","1","32457","NA","NA","179334","1464","NA","177921","178424","178676","177415","176153","1468","179342","180342","178424","178676","NA","NA","NA","NA","177415","NA","NA","NA","NA","NA","NA","144537","177414","[178425.0, 178435.0, 178445.0, 178455.0, 178465.0, 178475.0, 178485.0, 178495.0, 178505.0, 178515.0, 178525.0, 178535.0, 178545.0, 178555.0, 178565.0, 178575.0, 178585.0, 178595.0, 178605.0, 178615.0, 178625.0, 178635.0, 178645.0, 178655.0, 178665.0, 178675.0]","[178676.0, 178686.0, 178696.0, 178706.0, 178716.0, 178726.0, 178736.0, 178746.0, 178756.0, 178766.0, 178776.0, 178786.0, 178796.0, 178806.0, 178816.0, 178826.0, 178836.0, 178846.0, 178856.0, 178866.0, 178876.0, 178886.0, 178896.0, 178906.0, 178916.0, 178926.0, 178936.0, 178946.0, 178956.0, 178966.0, 178976.0, 178986.0, 178996.0, 179006.0, 179016.0, 179026.0, 179036.0, 179046.0, 179056.0, 179066.0, 179076.0, 179086.0, 179096.0, 179106.0, 179116.0, 179126.0, 179136.0, 179146.0, 179156.0, 179166.0, 179176.0, 179186.0, 179196.0, 179206.0, 179216.0, 179226.0, 179236.0, 179246.0, 179256.0, 179266.0, 179276.0, 179286.0, 179296.0, 179306.0, 179316.0, 179326.0, 179333]","example_experiment","10","8256","11","yes","768","1","[0, 0, 0, 0, 0, 0, 0, 0, 0, 0, 0, 0, 0, 0, 0, 0, 0, 0, -1, -2, -3, -3, -4, -4, -4, -4]","[-4, -4, -4, -4, -4, -4, -4, -4, -4, -4, -4, -4, -4, -4, -4, -4, -4, -4, -4, -4, -4, -4, -4, -4, -4, -4, -4, -4, -2, 5, 15, 30, 49, 68, 85, 108, 137, 172, 207, 238, 264, 284, 297, 307, 315, 319, 321, 321, 321, 321, 320, 319, 319, 319, 319, 319, 321, 321, 321, 321, 321, 321, 321, 321, 321, 321, 321]","[0, 0, 0, 0, 0, 0, 0, 0, 0, 0, 0, 0, 0, 0, 0, 0, 0, 0, 0, 0, 0, 0, 0, 0, 0, 0]","[0, 0, 0, 0, 0, 0, 0, 0, 0, 0, 0, 0, 0, 0, 0, 0, 0, 0, 0, 0, 0, 0, 0, 0, 0, 0, 0, 0, 0, 3, 5, 6, 7, 8, 9, 11, 14, 18, 21, 23, 24, 24, 24, 24, 24, 25, 25, 25, 25, 25, 25, 24, 23, 23, 22, 21, 20, 19, 19, 18, 17, 15, 14, 11, 8, 5, 5]"
"91.6666666667","91.6666666667","725.833333333","725.833333333","black","no","prac","1","legacy","legacy","w.png","w.png","w.png","b.png","1","legacy","0","relative","1","undefined","NA","blue","NA","undefined","1","undefined","undefined","blue","3","0","3","0","11","0","NA","11","11","11","11","11","0","11","11","11","11","0","4","NA","NA","11","0","0","0","0","0","0","0","11","11/06/20 17:59:32","Default description","yes","simont_HV.osexp","C:\Users\admin\Desktop\임채은\!MouseTracking_final","no","sans","no","18","no","black","no","yes","768","50","None","50","10","legacy","11","11","1","C:/Users/admin/Desktop/임채은/!MouseTracking_final/subject-33.csv","legacy","1","1","1","Kafkaesque Koffka","3.2.6","0","blue","space","NA","None","blue","start","space","NA","NA","NA","NA","454","112080","NA","250","454","421","30987","NA","NA","NA","NA","2","legacy","1024","2","48000","-16","experiment","33","odd","legacy","red","green","blue","yellow","2","32457","NA","NA","182095","1464","NA","180885","181388","181640","180462","176153","1468","182112","183112","181388","181640","NA","NA","NA","NA","180462","NA","NA","NA","NA","NA","NA","144537","180460","[181389.0, 181399.0, 181409.0, 181419.0, 181429.0, 181439.0, 181449.0, 181459.0, 181469.0, 181479.0, 181489.0, 181499.0, 181509.0, 181519.0, 181529.0, 181539.0, 181549.0, 181559.0, 181569.0, 181579.0, 181589.0, 181599.0, 181609.0, 181619.0, 181629.0, 181639.0]","[181640.0, 181650.0, 181660.0, 181670.0, 181680.0, 181690.0, 181700.0, 181710.0, 181720.0, 181730.0, 181740.0, 181750.0, 181760.0, 181770.0, 181780.0, 181790.0, 181800.0, 181810.0, 181820.0, 181830.0, 181840.0, 181850.0, 181860.0, 181870.0, 181880.0, 181890.0, 181900.0, 181910.0, 181920.0, 181930.0, 181940.0, 181950.0, 181960.0, 181970.0, 181980.0, 181990.0, 182000.0, 182010.0, 182020.0, 182030.0, 182040.0, 182050.0, 182060.0, 182070.0, 182080.0, 182090.0, 182094]","example_experiment","11","8710","12","yes","768","1","[0, 0, 0, 0, 0, 0, 0, 0, 0, 0, 0, 0, 0, 0, 0, 0, 0, 0, 0, 0, 0, 0, 0, 0, 0, 0]","[0, 0, 0, 0, 0, 0, 0, 0, 0, 0, -1, -1, -2, -3, -5, -7, -8, -10, -10, -10, -10, -10, -10, -10, -9, -9, -9, -9, -10, -11, -12, -12, -12, -12, -12, -12, -12, -12, -12, -12, -11, -11, -10, -9, -9, -9, -9]","[0, 0, 0, 0, 0, 0, 0, 0, 0, 0, 0, 0, 0, 0, 0, 0, 0, 0, 0, 0, 0, 0, 0, 0, 0, 0]","[0, 0, 0, 0, 0, 0, -2, -7, -16, -26, -39, -53, -69, -84, -97, -111, -123, -137, -152, -166, -179, -191, -202, -211, -221, -230, -240, -250, -258, -266, -273, -278, -283, -287, -289, -292, -294, -297, -300, -302, -305, -307, -308, -309, -309, -309, -309]"
"92.3076923077","92.3076923077","708","708","black","no","prac","1","legacy","legacy","w.png","r.png","w.png","w.png","1","legacy","0","relative","1","undefined","NA","red","NA","undefined","1","undefined","undefined","red","1","0","3","0","12","0","NA","12","12","12","12","12","0","12","12","12","12","0","4","NA","NA","12","0","0","0","0","0","0","0","12","11/06/20 17:59:32","Default description","yes","simont_HV.osexp","C:\Users\admin\Desktop\임채은\!MouseTracking_final","no","sans","no","18","no","black","no","yes","768","70","None","70","None","legacy","12","12","1","C:/Users/admin/Desktop/임채은/!MouseTracking_final/subject-33.csv","legacy","1","1","1","Kafkaesque Koffka","3.2.6","0","red","space","NA","None","red","start","space","NA","NA","NA","NA","494","112080","NA","250","494","392","30987","NA","NA","NA","NA","2","legacy","1024","2","48000","-16","experiment","33","odd","legacy","red","green","blue","yellow","1","32457","NA","NA","184884","1464","NA","183633","184137","184389","183239","176153","1468","184902","185902","184137","184389","NA","NA","NA","NA","183239","NA","NA","NA","NA","NA","NA","144537","183238","[184138.0, 184148.0, 184158.0, 184168.0, 184178.0, 184188.0, 184198.0, 184208.0, 184218.0, 184228.0, 184238.0, 184248.0, 184258.0, 184268.0, 184278.0, 184288.0, 184298.0, 184308.0, 184318.0, 184328.0, 184338.0, 184348.0, 184358.0, 184368.0, 184378.0, 184388.0]","[184389.0, 184399.0, 184409.0, 184419.0, 184429.0, 184439.0, 184449.0, 184459.0, 184469.0, 184479.0, 184489.0, 184499.0, 184509.0, 184519.0, 184529.0, 184539.0, 184549.0, 184559.0, 184569.0, 184579.0, 184589.0, 184599.0, 184609.0, 184619.0, 184629.0, 184639.0, 184649.0, 184659.0, 184669.0, 184679.0, 184689.0, 184699.0, 184709.0, 184719.0, 184729.0, 184739.0, 184749.0, 184759.0, 184769.0, 184779.0, 184789.0, 184799.0, 184809.0, 184819.0, 184829.0, 184839.0, 184849.0, 184859.0, 184869.0, 184879.0, 184883]","example_experiment","12","9204","13","yes","768","1","[0, 0, 0, 0, 0, 0, 0, 0, 0, 0, 0, 0, 0, 0, 0, 0, 0, 0, 0, 0, 0, 0, 0, 0, 0, 0]","[0, 0, 0, 0, 0, 0, 0, 0, -2, -7, -12, -19, -29, -45, -66, -93, -125, -151, -175, -197, -215, -229, -243, -254, -261, -265, -267, -267, -267, -267, -267, -269, -273, -276, -280, -282, -284, -286, -288, -292, -297, -305, -312, -316, -318, -318, -319, -319, -319, -319, -319]","[0, 0, 0, 0, 0, 0, 0, 0, 0, 0, 0, 0, 0, 0, 0, 0, 0, 0, 0, 0, 0, 0, 0, 0, 0, 0]","[0, 0, 0, 0, 0, 0, 0, 0, 0, 0, -1, -2, -4, -6, -8, -10, -10, -9, -7, -4, -3, -3, -3, -3, -3, -3, -3, -3, -3, -3, -3, -3, -2, -1, -1, 0, 0, 0, 0, 0, 0, -2, -2, -3, -3, -3, -3, -3, -3, -3, -3]"
"92.8571428571","92.8571428571","699.071428571","699.071428571","black","no","prac","2","legacy","legacy","w.png","w.png","w.png","y.png","2","legacy","0","relative","1","undefined","NA","yellow","NA","undefined","1","undefined","undefined","yellow","4","0","3","0","13","0","NA","13","13","13","13","13","0","13","13","13","13","0","4","NA","NA","13","0","0","0","0","0","0","0","13","11/06/20 17:59:32","Default description","yes","simont_HV.osexp","C:\Users\admin\Desktop\임채은\!MouseTracking_final","no","sans","no","18","no","black","no","yes","768","140","None","140","None","legacy","13","13","1","C:/Users/admin/Desktop/임채은/!MouseTracking_final/subject-33.csv","legacy","2","1","1","Kafkaesque Koffka","3.2.6","0","yellow","space","NA","None","yellow","start","space","NA","NA","NA","NA","583","112080","NA","250","583","479","30987","NA","NA","NA","NA","2","legacy","1024","2","48000","-16","experiment","33","odd","legacy","red","green","blue","yellow","2","32457","NA","NA","187837","1464","NA","186500","187002","187253","186018","176153","1468","187852","188852","187002","187253","NA","NA","NA","NA","186018","NA","NA","NA","NA","NA","NA","144537","186017","[187002.0, 187013.0, 187023.0, 187033.0, 187043.0, 187053.0, 187063.0, 187073.0, 187083.0, 187093.0, 187103.0, 187113.0, 187123.0, 187133.0, 187143.0, 187153.0, 187163.0, 187173.0, 187183.0, 187193.0, 187203.0, 187213.0, 187223.0, 187233.0, 187243.0, 187252.0]","[187253.0, 187263.0, 187273.0, 187283.0, 187293.0, 187303.0, 187313.0, 187323.0, 187333.0, 187343.0, 187353.0, 187363.0, 187373.0, 187383.0, 187393.0, 187403.0, 187413.0, 187423.0, 187433.0, 187443.0, 187453.0, 187463.0, 187473.0, 187483.0, 187493.0, 187503.0, 187513.0, 187523.0, 187533.0, 187543.0, 187553.0, 187563.0, 187573.0, 187583.0, 187593.0, 187603.0, 187613.0, 187623.0, 187633.0, 187643.0, 187653.0, 187663.0, 187673.0, 187683.0, 187693.0, 187703.0, 187713.0, 187723.0, 187733.0, 187743.0, 187753.0, 187763.0, 187773.0, 187783.0, 187793.0, 187803.0, 187813.0, 187823.0, 187833.0, 187836]","example_experiment","13","9787","14","yes","768","2","[0, 0, 0, 0, 0, 0, 0, 0, 0, 0, 0, 0, 0, 0, 0, 0, 0, 0, 0, 0, 0, 0, 0, 0, 0, 0]","[0, 0, 0, 0, 0, 0, 0, 0, 0, 0, 0, 0, 0, 0, 0, 0, 0, -1, -1, -2, -2, -2, -2, 0, 3, 4, 4, 2, 1, -1, -1, -1, -1, -1, -1, -2, -3, -4, -6, -8, -10, -12, -14, -17, -18, -18, -18, -18, -18, -18, -18, -18, -18, -18, -18, -18, -17, -16, -15, -15]","[0, 0, 0, 0, 0, 0, 0, 0, 0, 0, 0, 0, 0, 0, 0, 0, 0, 0, 0, 0, 0, 0, 0, 0, 0, 0]","[0, 0, 0, 0, 0, 0, 0, 0, 0, 0, 0, 0, 0, 0, 0, 2, 6, 10, 16, 25, 35, 51, 71, 90, 112, 133, 159, 184, 206, 226, 240, 251, 258, 262, 265, 266, 266, 268, 269, 272, 278, 285, 294, 302, 310, 313, 313, 313, 313, 313, 313, 313, 313, 313, 313, 313, 313, 313, 313, 313]"
"93.3333333333","93.3333333333","685.133333333","685.133333333","black","no","prac","3","legacy","legacy","w.png","r.png","w.png","w.png","1","legacy","0","relative","1","undefined","NA","red","NA","undefined","1","undefined","undefined","red","1","0","3","0","14","0","NA","14","14","14","14","14","0","14","14","14","14","0","4","NA","NA","14","0","0","0","0","0","0","0","14","11/06/20 17:59:32","Default description","yes","simont_HV.osexp","C:\Users\admin\Desktop\임채은\!MouseTracking_final","no","sans","no","18","no","black","no","yes","768","130","None","130","None","legacy","14","14","1","C:/Users/admin/Desktop/임채은/!MouseTracking_final/subject-33.csv","legacy","1","2","1","Kafkaesque Koffka","3.2.6","0","red","space","NA","None","red","start","space","NA","NA","NA","NA","490","112080","NA","250","490","427","30987","NA","NA","NA","NA","2","legacy","1024","2","48000","-16","experiment","33","odd","legacy","red","green","blue","yellow","1","32457","NA","NA","190642","1464","NA","189395","189899","190151","188966","176153","1468","190662","191662","189899","190151","NA","NA","NA","NA","188966","NA","NA","NA","NA","NA","NA","144537","188964","[189900.0, 189910.0, 189920.0, 189930.0, 189940.0, 189950.0, 189960.0, 189970.0, 189980.0, 189990.0, 190000.0, 190010.0, 190020.0, 190030.0, 190040.0, 190050.0, 190060.0, 190070.0, 190080.0, 190090.0, 190100.0, 190110.0, 190120.0, 190130.0, 190140.0, 190150.0]","[190151.0, 190161.0, 190171.0, 190181.0, 190191.0, 190201.0, 190211.0, 190221.0, 190231.0, 190241.0, 190251.0, 190261.0, 190271.0, 190281.0, 190291.0, 190301.0, 190311.0, 190321.0, 190331.0, 190341.0, 190351.0, 190361.0, 190371.0, 190381.0, 190391.0, 190401.0, 190411.0, 190421.0, 190431.0, 190441.0, 190451.0, 190461.0, 190471.0, 190481.0, 190491.0, 190501.0, 190511.0, 190521.0, 190531.0, 190541.0, 190551.0, 190561.0, 190571.0, 190581.0, 190591.0, 190601.0, 190611.0, 190621.0, 190631.0, 190641.0, 190641]","example_experiment","14","10277","15","yes","768","1","[0, 0, 0, 0, 0, 0, 0, 0, 0, 0, 0, 0, 0, 0, 0, 0, 0, 0, 0, 0, 0, 0, 0, 0, 0, 0]","[0, 0, 0, 0, 0, 0, 0, 0, 0, 0, 0, 0, 0, 0, -4, -12, -30, -53, -79, -104, -133, -167, -200, -237, -269, -298, -314, -325, -329, -330, -330, -330, -330, -330, -330, -329, -329, -328, -327, -326, -324, -322, -320, -320, -320, -320, -320, -320, -320, -320, -320]","[0, 0, 0, 0, 0, 0, 0, 0, 0, 0, 0, 0, 0, 0, 0, 0, 0, 0, 0, 0, 0, 0, 0, 0, 0, 0]","[0, 0, 0, 0, 0, 0, 0, 0, 0, 0, 0, 0, 0, 0, 2, 5, 11, 15, 18, 19, 19, 18, 15, 13, 11, 10, 10, 9, 8, 8, 8, 8, 7, 7, 7, 6, 6, 6, 6, 6, 5, 4, 4, 3, 3, 3, 3, 3, 3, 3, 3]"
"93.75","93.75","722.4375","722.4375","black","no","prac","2","legacy","legacy","b.png","w.png","w.png","w.png","1","legacy","0","relative","1","undefined","NA","blue","NA","undefined","1","undefined","undefined","blue","3","0","3","0","15","0","NA","15","15","15","15","15","0","15","15","15","15","0","4","NA","NA","15","0","0","0","0","0","0","0","15","11/06/20 17:59:32","Default description","yes","simont_HV.osexp","C:\Users\admin\Desktop\임채은\!MouseTracking_final","no","sans","no","18","no","black","no","yes","768","380","None","380","20","legacy","15","15","2","C:/Users/admin/Desktop/임채은/!MouseTracking_final/subject-33.csv","legacy","2","1","2","Kafkaesque Koffka","3.2.6","0","blue","space","NA","None","blue","start","space","NA","NA","NA","NA","1282","112080","NA","250","1282","371","30987","NA","NA","NA","NA","2","legacy","1024","2","48000","-16","experiment","33","odd","legacy","red","green","blue","yellow","2","32457","NA","NA","194193","1464","NA","192154","192658","192910","191781","176153","1468","194212","195212","192658","192910","NA","NA","NA","NA","191781","NA","NA","NA","NA","NA","NA","144537","191780","[192659.0, 192669.0, 192679.0, 192689.0, 192699.0, 192709.0, 192719.0, 192729.0, 192739.0, 192749.0, 192759.0, 192769.0, 192779.0, 192789.0, 192799.0, 192809.0, 192819.0, 192829.0, 192839.0, 192849.0, 192859.0, 192869.0, 192879.0, 192889.0, 192899.0, 192909.0]","[192910.0, 192920.0, 192930.0, 192940.0, 192950.0, 192960.0, 192970.0, 192980.0, 192990.0, 193000.0, 193010.0, 193020.0, 193030.0, 193040.0, 193050.0, 193060.0, 193070.0, 193080.0, 193090.0, 193100.0, 193110.0, 193120.0, 193130.0, 193140.0, 193150.0, 193160.0, 193170.0, 193180.0, 193190.0, 193200.0, 193210.0, 193220.0, 193230.0, 193240.0, 193250.0, 193260.0, 193270.0, 193280.0, 193290.0, 193300.0, 193310.0, 193320.0, 193330.0, 193340.0, 193350.0, 193360.0, 193370.0, 193380.0, 193390.0, 193400.0, 193410.0, 193420.0, 193430.0, 193440.0, 193450.0, 193460.0, 193470.0, 193480.0, 193490.0, 193500.0, 193510.0, 193520.0, 193530.0, 193540.0, 193550.0, 193560.0, 193570.0, 193580.0, 193590.0, 193600.0, 193610.0, 193620.0, 193630.0, 193640.0, 193650.0, 193660.0, 193670.0, 193680.0, 193690.0, 193700.0, 193710.0, 193720.0, 193730.0, 193740.0, 193750.0, 193756, 193766.0, 193776.0, 193786.0, 193796.0, 193806.0, 193816.0, 193826.0, 193836.0, 193846.0, 193856.0, 193866.0, 193876.0, 193886.0, 193896.0, 193906.0, 193916.0, 193926.0, 193936.0, 193946.0, 193956.0, 193966.0, 193976.0, 193986.0, 193996.0, 194006.0, 194016.0, 194026.0, 194036.0, 194046.0, 194056.0, 194066.0, 194076.0, 194086.0, 194096.0, 194106.0, 194116.0, 194126.0, 194136.0, 194146.0, 194156.0, 194166.0, 194176.0, 194186.0, 194192]","example_experiment","15","11559","16","yes","768","4","[0, 0, 0, 0, 0, 0, 0, 0, 0, 0, 0, 0, 0, 0, 0, 0, 0, 0, 0, 0, 0, 0, 0, 0, 0, 0]","[0, 0, 0, 0, 0, 0, 0, 0, 0, 0, 0, 0, 0, 0, 0, 0, 0, 0, 0, 0, 0, 0, 0, 0, 0, 0, 0, 0, 0, 0, 0, 0, 0, 0, 0, 0, 0, 0, 0, -1, -1, -2, -3, -3, -4, -4, -4, -4, -5, -5, -4, -4, -2, -2, -2, -6, -10, -17, -21, -24, -26, -27, -28, -28, -28, -28, -27, -24, -22, -20, -19, -18, -17, -16, -15, -13, -10, -7, -4, 0, 3, 5, 7, 8, 9, 9, 9, 9, 9, 9, 9, 9, 9, 9, 9, 9, 9, 9, 9, 9, 9, 9, 9, 9, 9, 9, 8, 8, 7, 7, 7, 6, 6, 6, 6, 6, 6, 6, 7, 7, 7, 7, 6, 5, 5, 5, 5, 5, 5, 5]","[0, 0, 0, 0, 0, 0, 0, 0, 0, 0, 0, 0, 0, 0, 0, 0, 0, 0, 0, 0, 0, 0, 0, 0, 0, 0]","[0, 0, 0, 0, 0, 0, 0, 0, 0, 0, 0, 0, 0, 0, 0, 0, 0, 0, 0, 0, 0, 0, 0, 0, 0, 0, 0, 0, 0, 0, 0, 0, 0, 0, 0, 0, 0, 0, 0, -1, -4, -9, -17, -27, -37, -51, -63, -74, -79, -85, -88, -92, -96, -100, -108, -117, -128, -141, -152, -163, -172, -180, -188, -193, -199, -205, -212, -221, -228, -236, -242, -246, -250, -253, -256, -258, -263, -266, -270, -274, -278, -281, -284, -285, -286, -286, -286, -286, -286, -286, -286, -286, -286, -286, -286, -286, -286, -286, -286, -286, -286, -286, -286, -285, -283, -280, -278, -273, -269, -265, -261, -258, -258, -258, -258, -258, -258, -263, -267, -274, -281, -287, -295, -300, -304, -307, -310, -311, -312, -312]"
"94.1176470588","94.1176470588","710.941176471","710.941176471","black","no","prac","4","legacy","legacy","w.png","w.png","r.png","w.png","1","legacy","0","relative","1","undefined","NA","red","NA","undefined","1","undefined","undefined","red","1","0","3","0","16","0","NA","16","16","16","16","16","0","16","16","16","16","0","4","NA","NA","16","0","0","0","0","0","0","0","16","11/06/20 17:59:32","Default description","yes","simont_HV.osexp","C:\Users\admin\Desktop\임채은\!MouseTracking_final","no","sans","no","18","no","black","no","yes","768","170","None","170","None","legacy","16","16","2","C:/Users/admin/Desktop/임채은/!MouseTracking_final/subject-33.csv","legacy","2","2","1","Kafkaesque Koffka","3.2.6","0","red","space","NA","None","red","start","space","NA","NA","NA","NA","527","112080","NA","250","527","318","30987","NA","NA","NA","NA","2","legacy","1024","2","48000","-16","experiment","33","odd","legacy","red","green","blue","yellow","1","32457","NA","NA","196923","1464","NA","195639","196143","196395","195319","176153","1468","196942","197942","196143","196395","NA","NA","NA","NA","195319","NA","NA","NA","NA","NA","NA","144537","195317","[196144.0, 196154.0, 196164.0, 196174.0, 196184.0, 196194.0, 196204.0, 196214.0, 196224.0, 196234.0, 196244.0, 196254.0, 196264.0, 196274.0, 196284.0, 196294.0, 196304.0, 196314.0, 196324.0, 196334.0, 196344.0, 196354.0, 196364.0, 196374.0, 196384.0, 196394.0]","[196395.0, 196405.0, 196415.0, 196425.0, 196435.0, 196445.0, 196455.0, 196465.0, 196475.0, 196485.0, 196495.0, 196505.0, 196515.0, 196525.0, 196535.0, 196545.0, 196555.0, 196565.0, 196575.0, 196585.0, 196595.0, 196605.0, 196615.0, 196625.0, 196635.0, 196645.0, 196655.0, 196665.0, 196675.0, 196685.0, 196695.0, 196705.0, 196715.0, 196725.0, 196735.0, 196745.0, 196755.0, 196765.0, 196775.0, 196785.0, 196795.0, 196805.0, 196815.0, 196825.0, 196835.0, 196845.0, 196855.0, 196865.0, 196875.0, 196885.0, 196895.0, 196905.0, 196915.0, 196922]","example_experiment","16","12086","17","yes","768","2","[0, 0, 0, 0, 0, 0, 0, 0, 0, 0, 0, 0, 0, 0, 0, 0, 0, 0, 0, 0, 0, 0, 0, 0, 0, 0]","[0, 0, 0, 0, 0, 0, 0, 0, 0, 0, 0, 0, 0, 0, 0, 0, 0, 0, -2, -6, -13, -22, -31, -42, -55, -72, -95, -123, -154, -182, -205, -220, -235, -247, -260, -274, -285, -293, -299, -301, -302, -303, -303, -303, -303, -303, -303, -303, -303, -303, -303, -303, -303, -303]","[0, 0, 0, 0, 0, 0, 0, 0, 0, 0, 0, 0, 0, 0, 0, 0, 0, 0, 0, 0, 0, 0, 0, 0, 0, 0]","[0, 0, 0, 0, 0, 0, 0, 0, 0, 0, 0, 0, 0, 0, 0, 0, 0, 0, 0, 1, 2, 4, 4, 5, 5, 5, 5, 5, 5, 4, 2, 1, -1, -3, -4, -5, -5, -5, -5, -5, -4, -4, -4, -4, -4, -4, -4, -4, -4, -4, -4, -4, -4, -4]"
"94.4444444444","94.4444444444","702","702","black","no","prac","4","legacy","legacy","b.png","w.png","w.png","w.png","1","legacy","0","relative","1","undefined","NA","blue","NA","undefined","1","undefined","undefined","blue","3","0","3","0","17","0","NA","17","17","17","17","17","0","17","17","17","17","0","4","NA","NA","17","0","0","0","0","0","0","0","17","11/06/20 17:59:32","Default description","yes","simont_HV.osexp","C:\Users\admin\Desktop\임채은\!MouseTracking_final","no","sans","no","18","no","black","no","yes","768","230","None","230","230","legacy","17","17","2","C:/Users/admin/Desktop/임채은/!MouseTracking_final/subject-33.csv","legacy","2","2","2","Kafkaesque Koffka","3.2.6","0","blue","space","NA","None","blue","start","space","NA","NA","NA","NA","550","112080","NA","250","550","353","30987","NA","NA","NA","NA","2","legacy","1024","2","48000","-16","experiment","33","odd","legacy","red","green","blue","yellow","2","32457","NA","NA","199715","1464","NA","198408","198912","199164","198053","176153","1468","199732","200732","198912","199164","NA","NA","NA","NA","198053","NA","NA","NA","NA","NA","NA","144537","198051","[198913.0, 198923.0, 198933.0, 198943.0, 198953.0, 198963.0, 198973.0, 198983.0, 198993.0, 199003.0, 199013.0, 199023.0, 199033.0, 199043.0, 199053.0, 199063.0, 199073.0, 199083.0, 199093.0, 199103.0, 199113.0, 199123.0, 199133.0, 199143.0, 199153.0, 199163.0]","[199164.0, 199174.0, 199184.0, 199194.0, 199204.0, 199214.0, 199224.0, 199234.0, 199244.0, 199254.0, 199264.0, 199274.0, 199284.0, 199294.0, 199304.0, 199314.0, 199324.0, 199334.0, 199344.0, 199354.0, 199364.0, 199374.0, 199384.0, 199394.0, 199404.0, 199414.0, 199424.0, 199434.0, 199444.0, 199454.0, 199464.0, 199474.0, 199484.0, 199494.0, 199504.0, 199514.0, 199524.0, 199534.0, 199544.0, 199554.0, 199564.0, 199574.0, 199584.0, 199594.0, 199604.0, 199614.0, 199624.0, 199634.0, 199644.0, 199654.0, 199664.0, 199674.0, 199684.0, 199694.0, 199704.0, 199714.0, 199714]","example_experiment","17","12636","18","yes","768","4","[0, 0, 0, 0, 0, 0, 0, 0, 0, 0, 0, 0, 0, 0, 0, 0, 0, 0, 0, 0, 0, 0, 0, 0, 0, 0]","[0, 0, 0, 0, 0, 0, 0, 0, 0, 0, 0, 0, 0, 0, 0, 0, 0, 0, 0, 0, 0, 0, 0, 0, 0, -1, -2, -2, -2, -5, -10, -12, -13, -13, -11, -9, -7, -5, -3, -3, -3, -3, -3, -3, -3, -3, -3, -2, -1, 1, 2, 3, 3, 3, 3, 3, 3]","[0, 0, 0, 0, 0, 0, 0, 0, 0, 0, 0, 0, 0, 0, 0, 0, 0, 0, 0, 0, 0, 0, 0, 0, 0, 0]","[0, 0, 0, 0, 0, 0, 0, 0, 0, 0, 0, 0, 0, 0, 0, 0, 0, 0, 0, 0, 0, 0, 0, 0, -4, -12, -24, -46, -69, -93, -112, -129, -145, -165, -182, -201, -216, -232, -247, -260, -275, -287, -297, -305, -312, -316, -320, -323, -325, -327, -329, -330, -331, -331, -331, -331, -331]"
"94.7368421053","94.7368421053","728.052631579","728.052631579","black","no","prac","4","legacy","legacy","w.png","g.png","w.png","w.png","2","legacy","0","relative","1","undefined","NA","green","NA","undefined","1","undefined","undefined","green","2","0","3","0","18","0","NA","18","18","18","18","18","0","18","18","18","18","0","4","NA","NA","18","0","0","0","0","0","0","0","18","11/06/20 17:59:32","Default description","yes","simont_HV.osexp","C:\Users\admin\Desktop\임채은\!MouseTracking_final","no","sans","no","18","no","black","no","yes","768","90","None","90","None","legacy","18","18","1","C:/Users/admin/Desktop/임채은/!MouseTracking_final/subject-33.csv","legacy","2","2","2","Kafkaesque Koffka","3.2.6","0","green","space","NA","None","green","start","space","NA","NA","NA","NA","1197","112080","NA","250","1197","305","30987","NA","NA","NA","NA","2","legacy","1024","2","48000","-16","experiment","33","odd","legacy","red","green","blue","yellow","1","32457","NA","NA","203106","1464","NA","201152","201656","201908","200845","176153","1468","203122","204122","201656","201908","NA","NA","NA","NA","200845","NA","NA","NA","NA","NA","NA","144537","200844","[201657.0, 201667.0, 201677.0, 201687.0, 201697.0, 201707.0, 201717.0, 201727.0, 201737.0, 201747.0, 201757.0, 201767.0, 201777.0, 201787.0, 201797.0, 201807.0, 201817.0, 201827.0, 201837.0, 201847.0, 201857.0, 201867.0, 201877.0, 201887.0, 201897.0, 201907.0]","[201908.0, 201918.0, 201928.0, 201938.0, 201948.0, 201958.0, 201968.0, 201978.0, 201988.0, 201998.0, 202008.0, 202018.0, 202028.0, 202038.0, 202048.0, 202058.0, 202068.0, 202078.0, 202088.0, 202098.0, 202108.0, 202118.0, 202128.0, 202138.0, 202148.0, 202158.0, 202168.0, 202178.0, 202188.0, 202198.0, 202208.0, 202218.0, 202228.0, 202238.0, 202248.0, 202258.0, 202268.0, 202278.0, 202288.0, 202298.0, 202308.0, 202318.0, 202328.0, 202338.0, 202348.0, 202358.0, 202368.0, 202378.0, 202388.0, 202398.0, 202408.0, 202418.0, 202428.0, 202438.0, 202448.0, 202458.0, 202468.0, 202478.0, 202488.0, 202498.0, 202508.0, 202518.0, 202528.0, 202538.0, 202548.0, 202558.0, 202568.0, 202578.0, 202588.0, 202598.0, 202608.0, 202618.0, 202628.0, 202638.0, 202648.0, 202658.0, 202668.0, 202678.0, 202688.0, 202698.0, 202708.0, 202718.0, 202728.0, 202738.0, 202748.0, 202758.0, 202768.0, 202778.0, 202788.0, 202795, 202805.0, 202815.0, 202825.0, 202835.0, 202845.0, 202855.0, 202865.0, 202875.0, 202885.0, 202895.0, 202905.0, 202915.0, 202925.0, 202935.0, 202945.0, 202955.0, 202965.0, 202975.0, 202985.0, 202995.0, 203005.0, 203015.0, 203025.0, 203035.0, 203045.0, 203055.0, 203065.0, 203075.0, 203085.0, 203095.0, 203105.0, 203105]","example_experiment","18","13833","19","yes","768","4","[0, 0, 0, 0, 0, 0, 0, 0, 0, 0, 0, 0, 0, 0, 0, 0, 0, 0, 0, 0, 0, 0, 0, 0, 0, 0]","[0, 0, 0, 0, 0, 0, 0, 0, 0, 0, -1, -1, -1, -1, -1, -1, -1, -1, -1, -1, -1, -1, -1, -1, -1, -1, -1, -1, -1, -1, -1, -1, -1, -1, -1, -1, -1, -1, -1, -1, 3, 8, 15, 23, 33, 41, 47, 48, 48, 45, 36, 26, 18, 13, 12, 12, 16, 23, 38, 63, 103, 149, 201, 250, 294, 324, 344, 355, 360, 360, 360, 358, 352, 342, 333, 321, 311, 303, 296, 292, 288, 285, 281, 279, 278, 278, 278, 278, 278, 278, 278, 278, 278, 278, 278, 278, 278, 278, 278, 278, 278, 278, 278, 278, 278, 278, 278, 278, 278, 278, 278, 278, 280, 283, 286, 288, 289, 291, 291, 291, 291, 291]","[0, 0, 0, 0, 0, 0, 0, 0, 0, 0, 0, 0, 0, 0, 0, 0, 0, 0, 0, 0, 0, 0, 0, 0, 0, 0]","[0, 0, 0, 0, 0, 0, 0, 0, 0, 0, 0, 0, 0, 0, 0, 0, 0, 0, 0, 0, 0, 0, 0, 0, 0, 0, 0, 0, 0, 0, 0, 0, 0, 0, 0, 0, 0, 0, 0, 0, 0, 0, 0, 0, 0, 0, 0, 0, 0, 0, 0, 2, 5, 8, 10, 10, 10, 10, 9, 8, 6, 5, 4, 2, 1, 0, -1, -1, -2, -2, -2, -2, -3, -3, -3, -3, -3, -3, -3, -3, -3, -3, -2, -1, 0, 0, 0, 0, 0, 0, 0, 0, 0, 0, 0, 0, 0, 0, 0, 0, 0, 0, 0, 0, 0, 0, 0, 0, 0, 0, 0, 0, 0, 0, 0, 0, 0, -1, -1, -1, -1, -1]"
"95","95","728.7","728.7","black","no","prac","3","legacy","legacy","y.png","w.png","w.png","w.png","2","legacy","0","relative","1","undefined","NA","yellow","NA","undefined","1","undefined","undefined","yellow","4","0","3","0","19","0","NA","19","19","19","19","19","0","19","19","19","19","0","4","NA","NA","19","0","0","0","0","0","0","0","19","11/06/20 17:59:32","Default description","yes","simont_HV.osexp","C:\Users\admin\Desktop\임채은\!MouseTracking_final","no","sans","no","18","no","black","no","yes","768","30","None","30","None","legacy","19","19","2","C:/Users/admin/Desktop/임채은/!MouseTracking_final/subject-33.csv","legacy","1","2","2","Kafkaesque Koffka","3.2.6","0","yellow","space","NA","None","yellow","start","space","NA","NA","NA","NA","741","112080","NA","250","741","243","30987","NA","NA","NA","NA","2","legacy","1024","2","48000","-16","experiment","33","odd","legacy","red","green","blue","yellow","2","32457","NA","NA","205983","1464","NA","204485","204989","205241","204240","176153","1468","206002","207002","204989","205241","NA","NA","NA","NA","204240","NA","NA","NA","NA","NA","NA","144537","204238","[204990.0, 205000.0, 205010.0, 205020.0, 205030.0, 205040.0, 205050.0, 205060.0, 205070.0, 205080.0, 205090.0, 205100.0, 205110.0, 205120.0, 205130.0, 205140.0, 205150.0, 205160.0, 205170.0, 205180.0, 205190.0, 205200.0, 205210.0, 205220.0, 205230.0, 205240.0]","[205241.0, 205251.0, 205261.0, 205271.0, 205281.0, 205291.0, 205301.0, 205311.0, 205321.0, 205331.0, 205341.0, 205351.0, 205361.0, 205371.0, 205381.0, 205391.0, 205401.0, 205411.0, 205421.0, 205431.0, 205441.0, 205451.0, 205461.0, 205471.0, 205481.0, 205491.0, 205501.0, 205511.0, 205521.0, 205531.0, 205541.0, 205551.0, 205561.0, 205571.0, 205581.0, 205591.0, 205601.0, 205611.0, 205621.0, 205631.0, 205641.0, 205651.0, 205661.0, 205671.0, 205681.0, 205691.0, 205701.0, 205711.0, 205721.0, 205731.0, 205741.0, 205751.0, 205761.0, 205771.0, 205781.0, 205791.0, 205801.0, 205811.0, 205821.0, 205831.0, 205841.0, 205851.0, 205861.0, 205871.0, 205881.0, 205891.0, 205901.0, 205911.0, 205921.0, 205931.0, 205941.0, 205951.0, 205961.0, 205971.0, 205981.0, 205982]","example_experiment","19","14574","20","yes","768","3","[0, 0, 0, 0, 0, 0, 0, 0, 0, 0, 0, 0, 0, 0, 0, 0, 0, 0, 0, 0, 0, 0, 0, 0, 0, 0]","[0, 0, 0, 0, 0, 0, 0, 0, 0, 0, 0, 0, 0, 0, 0, 0, 0, 0, 0, 0, 0, 0, 0, 0, 0, 0, 0, 0, 0, 0, 0, 0, 0, 0, 0, 2, 3, 3, 3, 3, 3, 3, 2, 1, 0, -1, -3, -5, -8, -10, -11, -11, -11, -11, -11, -11, -9, -8, -6, -5, -4, -4, -4, -4, -4, -4, -4, -4, -4, -4, -4, -4, -4, -4, -4, -4]","[0, 0, 0, 0, 0, 0, 0, 0, 0, 0, 0, 0, 0, 0, 0, 0, 0, 0, 0, 0, 0, 0, 0, 0, 0, 0]","[0, 0, 0, 0, 1, 1, 2, 2, 3, 3, 3, 3, 3, 3, 3, 3, 3, 3, 3, 3, 3, 3, 3, 3, 3, 3, 3, 3, 3, 3, 3, 3, 4, 5, 10, 21, 37, 57, 74, 91, 106, 120, 133, 148, 163, 178, 194, 210, 221, 229, 234, 237, 240, 243, 247, 251, 257, 261, 265, 268, 271, 272, 274, 275, 277, 280, 283, 287, 289, 290, 290, 290, 290, 290, 290, 290]"
"95.2380952381","95.2380952381","737.285714286","737.285714286","black","no","prac","2","legacy","legacy","w.png","w.png","r.png","w.png","1","legacy","0","relative","1","undefined","NA","red","NA","undefined","1","undefined","undefined","red","1","0","3","0","20","0","NA","20","20","20","20","20","0","20","20","20","20","0","4","NA","NA","20","0","0","0","0","0","0","0","20","11/06/20 17:59:32","Default description","yes","simont_HV.osexp","C:\Users\admin\Desktop\임채은\!MouseTracking_final","no","sans","no","18","no","black","no","yes","768","100","None","100","30","legacy","20","20","2","C:/Users/admin/Desktop/임채은/!MouseTracking_final/subject-33.csv","legacy","2","1","2","Kafkaesque Koffka","3.2.6","0","red","space","NA","None","red","start","space","NA","NA","NA","NA","909","112080","NA","250","909","329","30987","NA","NA","NA","NA","2","legacy","1024","2","48000","-16","experiment","33","odd","legacy","red","green","blue","yellow","1","32457","NA","NA","209112","1464","NA","207446","207950","208202","207115","176153","1468","209122","210122","207950","208202","NA","NA","NA","NA","207115","NA","NA","NA","NA","NA","NA","144537","207113","[207951.0, 207961.0, 207971.0, 207981.0, 207991.0, 208001.0, 208011.0, 208021.0, 208031.0, 208041.0, 208051.0, 208061.0, 208071.0, 208081.0, 208091.0, 208101.0, 208111.0, 208121.0, 208131.0, 208141.0, 208151.0, 208161.0, 208171.0, 208181.0, 208191.0, 208201.0]","[208202.0, 208212.0, 208222.0, 208232.0, 208242.0, 208252.0, 208262.0, 208272.0, 208282.0, 208292.0, 208302.0, 208312.0, 208322.0, 208332.0, 208342.0, 208352.0, 208362.0, 208372.0, 208382.0, 208392.0, 208402.0, 208412.0, 208422.0, 208432.0, 208442.0, 208452.0, 208462.0, 208472.0, 208482.0, 208492.0, 208502.0, 208512.0, 208522.0, 208532.0, 208542.0, 208552.0, 208562.0, 208572.0, 208582.0, 208592.0, 208602.0, 208612.0, 208622.0, 208632.0, 208642.0, 208652.0, 208662.0, 208672.0, 208682.0, 208692.0, 208702.0, 208712.0, 208722.0, 208726, 208736.0, 208746.0, 208756.0, 208766.0, 208776.0, 208786.0, 208796.0, 208806.0, 208816.0, 208826.0, 208836.0, 208846.0, 208856.0, 208866.0, 208876.0, 208886.0, 208896.0, 208906.0, 208916.0, 208926.0, 208936.0, 208946.0, 208956.0, 208966.0, 208976.0, 208986.0, 208996.0, 209006.0, 209016.0, 209026.0, 209036.0, 209046.0, 209056.0, 209066.0, 209076.0, 209086.0, 209096.0, 209106.0, 209111]","example_experiment","20","15483","21","yes","768","4","[0, 0, 0, 0, 0, 0, 0, 0, 0, 0, 0, 0, 0, 0, 0, 0, 0, 0, 0, 0, 0, 0, 0, 0, 0, 0]","[0, 0, 0, 0, 0, 0, 0, 0, 0, 0, 0, -2, -6, -12, -21, -32, -46, -61, -75, -90, -109, -130, -149, -168, -184, -198, -207, -216, -223, -230, -238, -246, -251, -258, -264, -270, -275, -278, -278, -278, -278, -278, -278, -278, -279, -280, -281, -282, -283, -284, -284, -284, -284, -284, -284, -284, -284, -284, -284, -284, -284, -284, -284, -284, -284, -284, -284, -284, -284, -284, -284, -284, -284, -284, -284, -284, -284, -284, -284, -284, -284, -284, -284, -284, -284, -285, -288, -291, -295, -296, -296, -296, -296]","[0, 0, 0, 0, 0, 0, 0, 0, 0, 0, 0, 0, 0, 0, 0, 0, 0, 0, 0, 0, 0, 0, 0, 0, 0, 0]","[0, 0, 0, 0, 0, 0, 0, 0, 0, 0, 0, 0, 2, 3, 5, 7, 10, 12, 12, 13, 13, 12, 10, 9, 8, 8, 8, 7, 7, 7, 7, 6, 6, 5, 5, 5, 4, 4, 4, 4, 4, 4, 4, 4, 4, 4, 4, 4, 4, 4, 4, 4, 4, 4, 4, 4, 4, 4, 4, 4, 4, 4, 4, 4, 4, 4, 4, 4, 4, 4, 4, 4, 4, 4, 4, 4, 4, 4, 4, 4, 4, 4, 4, 4, 4, 4, 4, 4, 4, 4, 4, 4, 4]"
"95.4545454545","95.4545454545","739.363636364","739.363636364","black","no","prac","4","legacy","legacy","w.png","w.png","w.png","y.png","2","legacy","0","relative","1","undefined","NA","yellow","NA","undefined","1","undefined","undefined","yellow","4","0","3","0","21","0","NA","21","21","21","21","21","0","21","21","21","21","0","4","NA","NA","21","0","0","0","0","0","0","0","21","11/06/20 17:59:32","Default description","yes","simont_HV.osexp","C:\Users\admin\Desktop\임채은\!MouseTracking_final","no","sans","no","18","no","black","no","yes","768","290","None","290","10","legacy","21","21","1","C:/Users/admin/Desktop/임채은/!MouseTracking_final/subject-33.csv","legacy","2","2","1","Kafkaesque Koffka","3.2.6","0","yellow","space","NA","None","yellow","start","space","NA","NA","NA","NA","783","112080","NA","250","783","274","30987","NA","NA","NA","NA","2","legacy","1024","2","48000","-16","experiment","33","odd","legacy","red","green","blue","yellow","2","32457","NA","NA","212047","1464","NA","210507","211011","211263","210231","176153","1468","212062","213062","211011","211263","NA","NA","NA","NA","210231","NA","NA","NA","NA","NA","NA","144537","210229","[211012.0, 211022.0, 211032.0, 211042.0, 211052.0, 211062.0, 211072.0, 211082.0, 211092.0, 211102.0, 211112.0, 211122.0, 211132.0, 211142.0, 211152.0, 211162.0, 211172.0, 211182.0, 211192.0, 211202.0, 211212.0, 211222.0, 211232.0, 211242.0, 211252.0, 211262.0]","[211263.0, 211273.0, 211283.0, 211293.0, 211303.0, 211313.0, 211323.0, 211333.0, 211343.0, 211353.0, 211363.0, 211373.0, 211383.0, 211393.0, 211403.0, 211413.0, 211423.0, 211433.0, 211443.0, 211453.0, 211463.0, 211473.0, 211483.0, 211493.0, 211503.0, 211513.0, 211523.0, 211533.0, 211543.0, 211553.0, 211563.0, 211573.0, 211583.0, 211593.0, 211603.0, 211613.0, 211623.0, 211633.0, 211643.0, 211653.0, 211663.0, 211673.0, 211683.0, 211693.0, 211703.0, 211713.0, 211723.0, 211733.0, 211743.0, 211753.0, 211763.0, 211773.0, 211783.0, 211793.0, 211803.0, 211813.0, 211823.0, 211833.0, 211843.0, 211853.0, 211863.0, 211873.0, 211883.0, 211893.0, 211903.0, 211913.0, 211923.0, 211933.0, 211943.0, 211953.0, 211963.0, 211973.0, 211983.0, 211993.0, 212003.0, 212013.0, 212023.0, 212033.0, 212043.0, 212046]","example_experiment","21","16266","22","yes","768","2","[0, 0, 0, 0, 0, 0, 0, 0, 0, 0, 0, 0, 0, 0, 0, 0, 0, 0, 0, 0, 0, 0, 0, 0, 0, 0]","[0, 0, 0, 0, 0, 0, 0, 0, 0, 0, 0, 0, 0, 0, 0, 0, 0, 0, 0, 0, 0, 0, 0, 0, 0, 0, 0, 0, 0, 0, 0, 0, -1, -3, -6, -10, -13, -18, -21, -23, -23, -23, -19, -12, -6, 0, 5, 8, 9, 9, 10, 10, 10, 10, 10, 10, 10, 10, 10, 9, 7, 7, 6, 6, 6, 6, 6, 6, 6, 6, 6, 6, 6, 6, 5, 4, 3, 3, 3, 3]","[0, 0, 0, 0, 0, 0, 0, 0, 0, 0, 0, 0, 0, 0, 0, 0, 0, 0, 0, 0, 0, 0, 0, 0, 0, 0]","[0, 0, 0, 0, 0, 0, 0, 0, 0, 0, 0, 0, 0, 0, 0, 0, 0, 0, 0, 0, 0, 0, 0, 0, 0, 0, 0, 0, 0, 0, 2, 6, 11, 22, 33, 50, 68, 87, 105, 123, 140, 158, 175, 193, 206, 219, 227, 233, 237, 240, 242, 244, 245, 247, 248, 249, 251, 254, 259, 263, 266, 269, 271, 273, 275, 277, 279, 281, 282, 282, 282, 282, 285, 287, 292, 296, 299, 299, 299, 299]"
"95.652173913","95.652173913","730.956521739","730.956521739","black","no","prac","4","legacy","legacy","w.png","g.png","w.png","w.png","2","legacy","0","relative","1","undefined","NA","green","NA","undefined","1","undefined","undefined","green","2","0","3","0","22","0","NA","22","22","22","22","22","0","22","22","22","22","0","4","NA","NA","22","0","0","0","0","0","0","0","22","11/06/20 17:59:32","Default description","yes","simont_HV.osexp","C:\Users\admin\Desktop\임채은\!MouseTracking_final","no","sans","no","18","no","black","no","yes","768","190","None","190","None","legacy","22","22","1","C:/Users/admin/Desktop/임채은/!MouseTracking_final/subject-33.csv","legacy","2","2","2","Kafkaesque Koffka","3.2.6","0","green","space","NA","None","green","start","space","NA","NA","NA","NA","546","112080","NA","250","546","305","30987","NA","NA","NA","NA","2","legacy","1024","2","48000","-16","experiment","33","odd","legacy","red","green","blue","yellow","1","32457","NA","NA","214784","1464","NA","213481","213985","214237","213174","176153","1468","214792","215792","213985","214237","NA","NA","NA","NA","213174","NA","NA","NA","NA","NA","NA","144537","213173","[213986.0, 213996.0, 214006.0, 214016.0, 214026.0, 214036.0, 214046.0, 214056.0, 214066.0, 214076.0, 214086.0, 214096.0, 214106.0, 214116.0, 214126.0, 214136.0, 214146.0, 214156.0, 214166.0, 214176.0, 214186.0, 214196.0, 214206.0, 214216.0, 214226.0, 214236.0]","[214237.0, 214247.0, 214257.0, 214267.0, 214277.0, 214287.0, 214297.0, 214307.0, 214317.0, 214327.0, 214337.0, 214347.0, 214357.0, 214367.0, 214377.0, 214387.0, 214397.0, 214407.0, 214417.0, 214427.0, 214437.0, 214447.0, 214457.0, 214467.0, 214477.0, 214487.0, 214497.0, 214507.0, 214517.0, 214527.0, 214537.0, 214547.0, 214557.0, 214567.0, 214577.0, 214587.0, 214597.0, 214607.0, 214617.0, 214627.0, 214637.0, 214647.0, 214657.0, 214667.0, 214677.0, 214687.0, 214697.0, 214707.0, 214717.0, 214727.0, 214737.0, 214747.0, 214757.0, 214767.0, 214777.0, 214783]","example_experiment","22","16812","23","yes","768","4","[0, 0, 0, 0, 0, 0, 0, 0, 0, 0, 0, 0, 0, 0, 0, 0, 0, 0, 0, 0, 0, 0, 0, 0, 0, 0]","[0, 0, 0, 0, 0, 0, 0, 0, 0, 0, 0, 0, 0, 0, 0, 0, 0, 0, 0, 0, 6, 19, 36, 57, 80, 107, 139, 171, 199, 225, 248, 262, 275, 284, 290, 293, 295, 296, 296, 297, 297, 297, 297, 298, 299, 301, 303, 304, 305, 305, 305, 306, 306, 307, 308, 308]","[0, 0, 0, 0, 0, 0, 0, 0, 0, 0, 0, 0, 0, 0, 0, 0, 0, 0, 0, 0, 0, 0, 0, 0, 0, 0]","[0, 0, 0, 0, 0, 0, 0, 0, 0, 0, 0, 0, 0, 0, 0, 0, 0, 0, 0, 0, 2, 3, 5, 6, 8, 11, 14, 18, 21, 24, 26, 29, 31, 32, 33, 34, 34, 34, 34, 34, 34, 34, 32, 30, 28, 25, 23, 20, 17, 16, 14, 13, 11, 10, 8, 7]"
"95.8333333333","95.8333333333","721.875","721.875","black","no","prac","3","legacy","legacy","w.png","w.png","w.png","b.png","1","legacy","0","relative","1","undefined","NA","blue","NA","undefined","1","undefined","undefined","blue","3","0","3","0","23","0","NA","23","23","23","23","23","0","23","23","23","23","0","4","NA","NA","23","0","0","0","0","0","0","0","23","11/06/20 17:59:32","Default description","yes","simont_HV.osexp","C:\Users\admin\Desktop\임채은\!MouseTracking_final","no","sans","no","18","no","black","no","yes","768","70","None","70","0","legacy","23","23","1","C:/Users/admin/Desktop/임채은/!MouseTracking_final/subject-33.csv","legacy","1","2","2","Kafkaesque Koffka","3.2.6","0","blue","space","NA","None","blue","start","space","NA","NA","NA","NA","513","112080","NA","250","513","245","30987","NA","NA","NA","NA","2","legacy","1024","2","48000","-16","experiment","33","odd","legacy","red","green","blue","yellow","2","32457","NA","NA","217437","1464","NA","216170","216672","216923","215923","176153","1468","217442","218442","216672","216923","NA","NA","NA","NA","215922","NA","NA","NA","NA","NA","NA","144537","215921","[216672.0, 216683.0, 216693.0, 216703.0, 216713.0, 216723.0, 216733.0, 216743.0, 216753.0, 216763.0, 216773.0, 216783.0, 216793.0, 216803.0, 216813.0, 216823.0, 216833.0, 216843.0, 216853.0, 216863.0, 216873.0, 216883.0, 216893.0, 216903.0, 216913.0, 216922.0]","[216923.0, 216933.0, 216943.0, 216953.0, 216963.0, 216973.0, 216983.0, 216993.0, 217003.0, 217013.0, 217023.0, 217033.0, 217043.0, 217053.0, 217063.0, 217073.0, 217083.0, 217093.0, 217103.0, 217113.0, 217123.0, 217133.0, 217143.0, 217153.0, 217163.0, 217173.0, 217183.0, 217193.0, 217203.0, 217213.0, 217223.0, 217233.0, 217243.0, 217253.0, 217263.0, 217273.0, 217283.0, 217293.0, 217303.0, 217313.0, 217323.0, 217333.0, 217343.0, 217353.0, 217363.0, 217373.0, 217383.0, 217393.0, 217403.0, 217413.0, 217423.0, 217433.0, 217436]","example_experiment","23","17325","24","yes","768","3","[0, 0, 0, 0, 0, 0, 0, 0, 0, 0, 0, 0, 0, 0, 0, 0, 0, 0, 0, 0, 0, 0, 0, 0, 0, 0]","[0, 0, 0, 0, 0, 0, 0, 0, 0, 0, 0, 0, -1, -2, -4, -5, -5, -5, -5, -5, -5, -5, -7, -8, -9, -11, -11, -11, -11, -11, -11, -11, -11, -11, -11, -11, -11, -11, -11, -10, -10, -9, -8, -8, -7, -6, -6, -5, -5, -5, -5, -5, -5]","[0, 0, 0, 0, 0, 0, 0, 0, 0, 0, 0, 0, 0, 0, 0, 0, 0, 0, 0, 0, 0, 0, 0, 0, 0, 0]","[0, 0, 0, 0, 0, 0, 0, 0, -1, -4, -10, -19, -31, -46, -64, -82, -100, -120, -139, -158, -174, -189, -204, -217, -226, -235, -241, -248, -253, -258, -261, -263, -265, -267, -269, -271, -272, -274, -277, -279, -282, -285, -288, -290, -292, -294, -296, -297, -298, -299, -299, -299, -299]"
"96","96","713.44","713.44","black","no","prac","1","legacy","legacy","w.png","r.png","w.png","w.png","1","legacy","0","relative","1","undefined","NA","red","NA","undefined","1","undefined","undefined","red","1","0","3","0","24","0","NA","24","24","24","24","24","0","24","24","24","24","0","4","NA","NA","24","0","0","0","0","0","0","0","24","11/06/20 17:59:32","Default description","yes","simont_HV.osexp","C:\Users\admin\Desktop\임채은\!MouseTracking_final","no","sans","no","18","no","black","no","yes","768","120","None","120","60","legacy","24","24","1","C:/Users/admin/Desktop/임채은/!MouseTracking_final/subject-33.csv","legacy","1","1","2","Kafkaesque Koffka","3.2.6","0","red","space","NA","None","red","start","space","NA","NA","NA","NA","511","112080","NA","250","511","575","30987","NA","NA","NA","NA","2","legacy","1024","2","48000","-16","experiment","33","odd","legacy","red","green","blue","yellow","1","32457","NA","NA","220392","1464","NA","219124","219628","219880","218547","176153","1468","220402","221402","219628","219880","NA","NA","NA","NA","218547","NA","NA","NA","NA","NA","NA","144537","218545","[219629.0, 219639.0, 219649.0, 219659.0, 219669.0, 219679.0, 219689.0, 219699.0, 219709.0, 219719.0, 219729.0, 219739.0, 219749.0, 219759.0, 219769.0, 219779.0, 219789.0, 219799.0, 219809.0, 219819.0, 219829.0, 219839.0, 219849.0, 219859.0, 219869.0, 219879.0]","[219880.0, 219890.0, 219900.0, 219910.0, 219920.0, 219930.0, 219940.0, 219950.0, 219960.0, 219970.0, 219980.0, 219990.0, 220000.0, 220010.0, 220020.0, 220030.0, 220040.0, 220050.0, 220060.0, 220070.0, 220080.0, 220090.0, 220100.0, 220110.0, 220120.0, 220130.0, 220140.0, 220150.0, 220160.0, 220170.0, 220180.0, 220190.0, 220200.0, 220210.0, 220220.0, 220230.0, 220240.0, 220250.0, 220260.0, 220270.0, 220280.0, 220290.0, 220300.0, 220310.0, 220320.0, 220330.0, 220340.0, 220350.0, 220360.0, 220370.0, 220380.0, 220390.0, 220391]","example_experiment","24","17836","25","yes","768","3","[0, 0, 0, 0, 0, 0, 0, 0, 0, 0, 0, 0, 0, 0, 0, 0, 0, 0, 0, 0, 0, 0, 0, 0, 0, 0]","[0, 0, 0, 0, 0, 0, 0, 0, 0, 0, 0, 0, 0, -3, -7, -11, -17, -26, -39, -58, -81, -102, -123, -143, -162, -179, -198, -217, -231, -241, -248, -253, -258, -265, -272, -279, -285, -289, -291, -292, -292, -292, -292, -292, -294, -297, -301, -304, -307, -307, -307, -308, -308]","[0, 0, 0, 0, 0, 0, 0, 0, 0, 0, 0, 0, 0, 0, 0, 0, 0, 0, 0, 0, 0, 0, 0, 0, 0, 0]","[0, 0, 0, 0, 0, 0, 0, 0, 0, 0, 0, 0, 0, 0, 2, 2, 3, 4, 4, 4, 4, 4, 4, 4, 4, 4, 4, 4, 4, 4, 4, 4, 4, 4, 4, 4, 4, 4, 4, 3, 3, 3, 3, 3, 2, 2, 2, 2, 2, 2, 2, 2, 2]"
"96.1538461538","96.1538461538","709.076923077","709.076923077","black","no","prac","2","legacy","legacy","w.png","w.png","w.png","y.png","2","legacy","0","relative","1","undefined","NA","yellow","NA","undefined","1","undefined","undefined","yellow","4","0","3","0","25","0","NA","25","25","25","25","25","0","25","25","25","25","0","4","NA","NA","25","0","0","0","0","0","0","0","25","11/06/20 17:59:32","Default description","yes","simont_HV.osexp","C:\Users\admin\Desktop\임채은\!MouseTracking_final","no","sans","no","18","no","black","no","yes","768","150","None","150","None","legacy","25","25","1","C:/Users/admin/Desktop/임채은/!MouseTracking_final/subject-33.csv","legacy","2","1","1","Kafkaesque Koffka","3.2.6","0","yellow","space","NA","None","yellow","start","space","NA","NA","NA","NA","600","112080","NA","250","600","499","30987","NA","NA","NA","NA","2","legacy","1024","2","48000","-16","experiment","33","odd","legacy","red","green","blue","yellow","2","32457","NA","NA","223369","1464","NA","222015","222517","222768","221514","176153","1468","223372","224372","222516","222768","NA","NA","NA","NA","221514","NA","NA","NA","NA","NA","NA","144537","221513","[222517.0, 222527.0, 222537.0, 222547.0, 222557.0, 222567.0, 222577.0, 222587.0, 222597.0, 222607.0, 222617.0, 222627.0, 222637.0, 222647.0, 222657.0, 222667.0, 222677.0, 222687.0, 222697.0, 222707.0, 222717.0, 222727.0, 222737.0, 222747.0, 222757.0, 222767.0]","[222768.0, 222778.0, 222788.0, 222798.0, 222808.0, 222818.0, 222828.0, 222838.0, 222848.0, 222858.0, 222868.0, 222878.0, 222888.0, 222898.0, 222908.0, 222918.0, 222928.0, 222938.0, 222948.0, 222958.0, 222968.0, 222978.0, 222988.0, 222998.0, 223008.0, 223018.0, 223028.0, 223038.0, 223048.0, 223058.0, 223068.0, 223078.0, 223088.0, 223098.0, 223108.0, 223118.0, 223128.0, 223138.0, 223148.0, 223158.0, 223168.0, 223178.0, 223188.0, 223198.0, 223208.0, 223218.0, 223228.0, 223238.0, 223248.0, 223258.0, 223268.0, 223278.0, 223288.0, 223298.0, 223308.0, 223318.0, 223328.0, 223338.0, 223348.0, 223358.0, 223368.0, 223368]","example_experiment","25","18436","26","yes","768","2","[0, 0, 0, 0, 0, 0, 0, 0, 0, 0, 0, 0, 0, 0, 0, 0, 0, 0, 0, 0, 0, 0, 0, 0, 0, 0]","[0, 0, 0, 0, 0, 0, 0, 0, 0, 0, 0, 0, 0, 0, 0, 0, 0, 0, 0, 0, -2, -4, -5, -6, -6, -5, -2, 2, 5, 8, 10, 12, 13, 14, 15, 16, 17, 17, 17, 17, 17, 17, 16, 16, 16, 15, 14, 11, 8, 6, 4, 2, 2, 2, 2, 2, 2, 2, 2, 2, 2, 2]","[0, 0, 0, 0, 0, 0, 0, 0, 0, 0, 0, 0, 0, 0, 0, 0, 0, 0, 0, 0, 0, 0, 0, 0, 0, 0]","[0, 0, 0, 0, 0, 0, 0, 0, 0, 0, 0, 0, 0, 0, 0, 0, 1, 6, 11, 20, 32, 51, 73, 96, 118, 136, 154, 173, 187, 201, 212, 220, 228, 237, 244, 249, 251, 254, 256, 257, 260, 263, 266, 269, 272, 275, 278, 284, 289, 294, 299, 302, 304, 306, 307, 307, 307, 307, 307, 307, 307, 307]"
"96.2962962963","96.2962962963","704.555555556","704.555555556","black","no","prac","3","legacy","legacy","w.png","w.png","g.png","w.png","2","legacy","0","relative","1","undefined","NA","green","NA","undefined","1","undefined","undefined","green","2","0","3","0","26","0","NA","26","26","26","26","26","0","26","26","26","26","0","4","NA","NA","26","0","0","0","0","0","0","0","26","11/06/20 17:59:32","Default description","yes","simont_HV.osexp","C:\Users\admin\Desktop\임채은\!MouseTracking_final","no","sans","no","18","no","black","no","yes","768","190","None","190","None","legacy","26","26","2","C:/Users/admin/Desktop/임채은/!MouseTracking_final/subject-33.csv","legacy","1","2","1","Kafkaesque Koffka","3.2.6","0","green","space","NA","None","green","start","space","NA","NA","NA","NA","587","112080","NA","250","587","394","30987","NA","NA","NA","NA","2","legacy","1024","2","48000","-16","experiment","33","odd","legacy","red","green","blue","yellow","1","32457","NA","NA","226224","1464","NA","224880","225384","225636","224484","176153","1468","226232","227232","225384","225636","NA","NA","NA","NA","224484","NA","NA","NA","NA","NA","NA","144537","224483","[225385.0, 225395.0, 225405.0, 225415.0, 225425.0, 225435.0, 225445.0, 225455.0, 225465.0, 225475.0, 225485.0, 225495.0, 225505.0, 225515.0, 225525.0, 225535.0, 225545.0, 225555.0, 225565.0, 225575.0, 225585.0, 225595.0, 225605.0, 225615.0, 225625.0, 225635.0]","[225636.0, 225646.0, 225656.0, 225666.0, 225676.0, 225686.0, 225696.0, 225706.0, 225716.0, 225726.0, 225736.0, 225746.0, 225756.0, 225766.0, 225776.0, 225786.0, 225796.0, 225806.0, 225816.0, 225826.0, 225836.0, 225846.0, 225856.0, 225866.0, 225876.0, 225886.0, 225896.0, 225906.0, 225916.0, 225926.0, 225936.0, 225946.0, 225956.0, 225966.0, 225976.0, 225986.0, 225996.0, 226006.0, 226016.0, 226026.0, 226036.0, 226046.0, 226056.0, 226066.0, 226076.0, 226086.0, 226096.0, 226106.0, 226116.0, 226126.0, 226136.0, 226146.0, 226156.0, 226166.0, 226176.0, 226186.0, 226196.0, 226206.0, 226216.0, 226223]","example_experiment","26","19023","27","yes","768","1","[0, 0, 0, 0, 0, 0, 0, 0, 0, 0, 0, 0, 0, 0, 0, 0, 0, 0, 0, 0, 0, 0, 0, 0, 0, 0]","[0, 0, 0, 0, 0, 0, 0, 0, 0, 0, 0, 0, 0, 0, 0, 0, 0, 0, 0, 0, 1, 5, 13, 26, 44, 64, 94, 128, 160, 194, 223, 246, 267, 283, 300, 312, 322, 327, 330, 330, 330, 330, 330, 331, 334, 336, 338, 339, 339, 339, 339, 339, 338, 337, 336, 335, 335, 335, 335, 335]","[0, 0, 0, 0, 0, 0, 0, 0, 0, 0, 0, 0, 0, 0, 0, 0, 0, 0, 0, 0, 0, 0, 0, 0, 0, 0]","[0, 0, 0, 0, 0, 0, 0, 0, 0, 0, 0, 0, 0, 0, 0, 0, 0, 0, 0, 0, 1, 2, 4, 5, 7, 9, 13, 16, 19, 23, 26, 28, 30, 32, 33, 35, 35, 35, 35, 35, 35, 35, 34, 32, 29, 26, 23, 21, 19, 17, 16, 14, 13, 11, 10, 9, 8, 8, 8, 8]"
"96.4285714286","96.4285714286","700.535714286","700.535714286","black","no","prac","2","legacy","legacy","b.png","w.png","w.png","w.png","1","legacy","0","relative","1","undefined","NA","blue","NA","undefined","1","undefined","undefined","blue","3","0","3","0","27","0","NA","27","27","27","27","27","0","27","27","27","27","0","4","NA","NA","27","0","0","0","0","0","0","0","27","11/06/20 17:59:32","Default description","yes","simont_HV.osexp","C:\Users\admin\Desktop\임채은\!MouseTracking_final","no","sans","no","18","no","black","no","yes","768","160","None","160","None","legacy","27","27","2","C:/Users/admin/Desktop/임채은/!MouseTracking_final/subject-33.csv","legacy","2","1","2","Kafkaesque Koffka","3.2.6","0","blue","space","NA","None","blue","start","space","NA","NA","NA","NA","592","112080","NA","250","592","279","30987","NA","NA","NA","NA","2","legacy","1024","2","48000","-16","experiment","33","odd","legacy","red","green","blue","yellow","2","32457","NA","NA","228981","1464","NA","227632","228136","228388","227351","176153","1468","229002","230002","228136","228388","NA","NA","NA","NA","227351","NA","NA","NA","NA","NA","NA","144537","227349","[228137.0, 228147.0, 228157.0, 228167.0, 228177.0, 228187.0, 228197.0, 228207.0, 228217.0, 228227.0, 228237.0, 228247.0, 228257.0, 228267.0, 228277.0, 228287.0, 228297.0, 228307.0, 228317.0, 228327.0, 228337.0, 228347.0, 228357.0, 228367.0, 228377.0, 228387.0]","[228388.0, 228398.0, 228408.0, 228418.0, 228428.0, 228438.0, 228448.0, 228458.0, 228468.0, 228478.0, 228488.0, 228498.0, 228508.0, 228518.0, 228528.0, 228538.0, 228548.0, 228558.0, 228568.0, 228578.0, 228588.0, 228598.0, 228608.0, 228618.0, 228628.0, 228638.0, 228648.0, 228658.0, 228668.0, 228678.0, 228688.0, 228698.0, 228708.0, 228718.0, 228728.0, 228738.0, 228748.0, 228758.0, 228768.0, 228778.0, 228788.0, 228798.0, 228808.0, 228818.0, 228828.0, 228838.0, 228848.0, 228858.0, 228868.0, 228878.0, 228888.0, 228898.0, 228908.0, 228918.0, 228928.0, 228938.0, 228948.0, 228958.0, 228968.0, 228978.0, 228980]","example_experiment","27","19615","28","yes","768","4","[0, 0, 0, 0, 0, 0, 0, 0, 0, 0, 0, 0, 0, 0, 0, 0, 0, 0, 0, 0, 0, 0, 0, 0, 0, 0]","[0, 0, 0, 0, 0, 0, 0, 0, 0, 0, 0, 0, 0, 0, 0, 0, 0, 0, 0, -1, -2, -3, -3, -3, -3, -3, -1, 3, 7, 12, 14, 17, 19, 21, 23, 23, 24, 24, 24, 23, 21, 20, 19, 17, 16, 15, 13, 11, 10, 8, 6, 5, 4, 3, 3, 2, 2, 2, 2, 2, 2]","[0, 0, 0, 0, 0, 0, 0, 0, 0, 0, 0, 0, 0, 0, 0, 0, 0, 0, 0, 0, 0, 0, 0, 0, 0, 0]","[0, 0, 0, 0, 0, 0, 0, 0, 0, 0, 0, 0, 0, 0, 0, 0, 0, -2, -7, -15, -24, -35, -49, -65, -82, -101, -122, -142, -160, -175, -188, -200, -212, -221, -230, -238, -245, -251, -256, -260, -263, -265, -268, -271, -274, -276, -279, -281, -283, -285, -287, -290, -293, -296, -299, -303, -305, -307, -307, -307, -307]"
"96.5517241379","96.5517241379","699.517241379","699.517241379","black","no","prac","4","legacy","legacy","b.png","w.png","w.png","w.png","1","legacy","0","relative","1","undefined","NA","blue","NA","undefined","1","undefined","undefined","blue","3","0","3","0","28","0","NA","28","28","28","28","28","0","28","28","28","28","0","4","NA","NA","28","0","0","0","0","0","0","0","28","11/06/20 17:59:32","Default description","yes","simont_HV.osexp","C:\Users\admin\Desktop\임채은\!MouseTracking_final","no","sans","no","18","no","black","no","yes","768","130","None","130","None","legacy","28","28","2","C:/Users/admin/Desktop/임채은/!MouseTracking_final/subject-33.csv","legacy","2","2","2","Kafkaesque Koffka","3.2.6","0","blue","space","NA","None","blue","start","space","NA","NA","NA","NA","671","112080","NA","250","671","354","30987","NA","NA","NA","NA","2","legacy","1024","2","48000","-16","experiment","33","odd","legacy","red","green","blue","yellow","2","32457","NA","NA","231904","1464","NA","230476","230980","231232","230119","176153","1468","231922","232922","230980","231232","NA","NA","NA","NA","230119","NA","NA","NA","NA","NA","NA","144537","230118","[230981.0, 230991.0, 231001.0, 231011.0, 231021.0, 231031.0, 231041.0, 231051.0, 231061.0, 231071.0, 231081.0, 231091.0, 231101.0, 231111.0, 231121.0, 231131.0, 231141.0, 231151.0, 231161.0, 231171.0, 231181.0, 231191.0, 231201.0, 231211.0, 231221.0, 231231.0]","[231232.0, 231242.0, 231252.0, 231262.0, 231272.0, 231282.0, 231292.0, 231302.0, 231312.0, 231322.0, 231332.0, 231342.0, 231352.0, 231362.0, 231372.0, 231382.0, 231392.0, 231402.0, 231412.0, 231422.0, 231432.0, 231442.0, 231452.0, 231462.0, 231472.0, 231482.0, 231492.0, 231502.0, 231512.0, 231522.0, 231532.0, 231542.0, 231552.0, 231562.0, 231572.0, 231582.0, 231592.0, 231602.0, 231612.0, 231622.0, 231632.0, 231642.0, 231652.0, 231662.0, 231672.0, 231682.0, 231692.0, 231702.0, 231712.0, 231722.0, 231732.0, 231742.0, 231752.0, 231762.0, 231772.0, 231782.0, 231792.0, 231802.0, 231812.0, 231822.0, 231832.0, 231842.0, 231852.0, 231862.0, 231872.0, 231882.0, 231892.0, 231902.0, 231903]","example_experiment","28","20286","29","yes","768","4","[0, 0, 0, 0, 0, 0, 0, 0, 0, 0, 0, 0, 0, 0, 0, 0, 0, 0, 0, 0, 0, 0, 0, 0, 0, 0]","[0, 0, 0, 0, 0, 0, 0, 0, 0, 0, 0, 0, 0, 0, 0, 0, 0, 1, 2, 2, 2, 2, 2, 2, 2, 2, 1, 1, 1, 1, 1, 1, 1, 1, 1, 1, 1, 1, 1, 1, 1, 1, 1, 1, 1, 1, 1, 1, 1, 1, 1, 1, 1, 1, 1, 1, 1, 1, 1, 1, 1, 1, 1, 1, 1, 1, 1, 1, 1]","[0, 0, 0, 0, 0, 0, 0, 0, 0, 0, 0, 0, 0, 0, 0, 0, 0, 0, 0, 0, 0, 0, 0, 0, 0, 0]","[0, 0, 0, 0, 0, 0, 0, 0, 0, 0, 0, 0, 0, 0, -2, -5, -10, -16, -26, -39, -54, -73, -88, -103, -118, -136, -153, -170, -186, -203, -217, -230, -242, -252, -260, -267, -272, -276, -279, -282, -283, -285, -285, -285, -285, -286, -286, -287, -288, -289, -290, -293, -295, -297, -299, -301, -302, -304, -305, -306, -307, -308, -309, -310, -310, -310, -310, -310, -310]"
"96.6666666667","96.6666666667","699.233333333","699.233333333","black","no","prac","3","legacy","legacy","w.png","w.png","g.png","w.png","2","legacy","0","relative","1","undefined","NA","green","NA","undefined","1","undefined","undefined","green","2","0","3","0","29","0","NA","29","29","29","29","29","0","29","29","29","29","0","4","NA","NA","29","0","0","0","0","0","0","0","29","11/06/20 17:59:32","Default description","yes","simont_HV.osexp","C:\Users\admin\Desktop\임채은\!MouseTracking_final","no","sans","no","18","no","black","no","yes","768","200","None","200","None","legacy","29","29","2","C:/Users/admin/Desktop/임채은/!MouseTracking_final/subject-33.csv","legacy","1","2","2","Kafkaesque Koffka","3.2.6","0","green","space","NA","None","green","start","space","NA","NA","NA","NA","691","112080","NA","250","691","326","30987","NA","NA","NA","NA","2","legacy","1024","2","48000","-16","experiment","33","odd","legacy","red","green","blue","yellow","1","32457","NA","NA","234825","1464","NA","233377","233881","234133","233049","176153","1468","234852","235852","233881","234133","NA","NA","NA","NA","233049","NA","NA","NA","NA","NA","NA","144537","233048","[233882.0, 233892.0, 233902.0, 233912.0, 233922.0, 233932.0, 233942.0, 233952.0, 233962.0, 233972.0, 233982.0, 233992.0, 234002.0, 234012.0, 234022.0, 234032.0, 234042.0, 234052.0, 234062.0, 234072.0, 234082.0, 234092.0, 234102.0, 234112.0, 234122.0, 234132.0]","[234133.0, 234143.0, 234153.0, 234163.0, 234173.0, 234183.0, 234193.0, 234203.0, 234213.0, 234223.0, 234233.0, 234243.0, 234253.0, 234263.0, 234273.0, 234283.0, 234293.0, 234303.0, 234313.0, 234323.0, 234333.0, 234343.0, 234353.0, 234363.0, 234373.0, 234383.0, 234393.0, 234403.0, 234413.0, 234423.0, 234433.0, 234443.0, 234453.0, 234463.0, 234473.0, 234483.0, 234493.0, 234503.0, 234513.0, 234523.0, 234533.0, 234543.0, 234553.0, 234563.0, 234573.0, 234583.0, 234593.0, 234603.0, 234613.0, 234623.0, 234633.0, 234643.0, 234653.0, 234663.0, 234673.0, 234683.0, 234693.0, 234703.0, 234713.0, 234723.0, 234733.0, 234743.0, 234753.0, 234763.0, 234773.0, 234783.0, 234793.0, 234803.0, 234813.0, 234823.0, 234824]","example_experiment","29","20977","30","yes","768","3","[0, 0, 0, 0, 0, 0, 0, 0, 0, 0, 0, 0, 0, 0, 0, 0, 0, 0, 0, 0, 0, 0, 0, 0, 0, 0]","[0, 0, 0, 0, 0, 0, 0, 0, 0, 0, 0, 0, 0, 0, 0, 0, 0, 0, 0, 0, 0, -3, -9, -18, -27, -35, -43, -48, -51, -51, -51, -45, -33, -8, 25, 68, 109, 150, 187, 227, 267, 301, 327, 343, 352, 356, 358, 358, 358, 356, 351, 345, 338, 331, 325, 321, 321, 321, 321, 321, 321, 321, 321, 321, 321, 320, 320, 320, 320, 320, 320]","[0, 0, 0, 0, 0, 0, 0, 0, 0, 0, 0, 0, 0, 0, 0, 0, 0, 0, 0, 0, 0, 0, 0, 0, 0, 0]","[0, 0, 0, 0, 0, 0, 0, 0, 0, 0, 0, 0, 0, 0, 0, 0, 0, 0, 0, 0, 0, 0, 1, 4, 5, 6, 7, 8, 9, 9, 9, 9, 9, 8, 5, 2, 1, -1, -1, -1, 1, 4, 5, 7, 8, 8, 9, 9, 9, 10, 10, 10, 9, 8, 6, 6, 6, 6, 6, 6, 6, 6, 6, 6, 6, 6, 6, 6, 6, 6, 6]"
"96.7741935484","96.7741935484","699.870967742","699.870967742","black","no","block1","0","legacy","legacy","w.png","r.png","w.png","w.png","1","legacy","0","relative","1","undefined","NA","red","NA","undefined","1","undefined","undefined","red","1","0","3","0","30","0","NA","30","30","30","30","30","0","30","30","30","30","0","4","NA","NA","30","0","0","0","0","0","0","0","30","11/06/20 17:59:32","Default description","yes","simont_HV.osexp","C:\Users\admin\Desktop\임채은\!MouseTracking_final","no","sans","no","18","no","black","no","yes","768","270","None","270","110","legacy","0","29","1","C:/Users/admin/Desktop/임채은/!MouseTracking_final/subject-33.csv","legacy","1","0","0","Kafkaesque Koffka","3.2.6","0","red","space","NA","None","red","start","space","space","NA","NA","NA","719","112080","NA","250","719","786","30987","65526","NA","NA","NA","2","legacy","1024","2","48000","-16","experiment","33","odd","legacy","red","green","blue","yellow","1","32457","NA","NA","303750","1464","NA","302274","302778","303030","301486","176153","1468","303752","304752","302778","303030","235897","NA","NA","NA","301486","301423","NA","NA","NA","NA","NA","144537","301484","[302779.0, 302789.0, 302799.0, 302809.0, 302819.0, 302829.0, 302839.0, 302849.0, 302859.0, 302869.0, 302879.0, 302889.0, 302899.0, 302909.0, 302919.0, 302929.0, 302939.0, 302949.0, 302959.0, 302969.0, 302979.0, 302989.0, 302999.0, 303009.0, 303019.0, 303029.0]","[303030.0, 303040.0, 303050.0, 303060.0, 303070.0, 303080.0, 303090.0, 303100.0, 303110.0, 303120.0, 303130.0, 303140.0, 303150.0, 303160.0, 303170.0, 303180.0, 303190.0, 303200.0, 303210.0, 303220.0, 303230.0, 303240.0, 303250.0, 303260.0, 303270.0, 303280.0, 303290.0, 303300.0, 303310.0, 303320.0, 303330.0, 303340.0, 303350.0, 303360.0, 303370.0, 303380.0, 303390.0, 303400.0, 303410.0, 303420.0, 303430.0, 303440.0, 303450.0, 303460.0, 303470.0, 303480.0, 303490.0, 303500.0, 303510.0, 303520.0, 303530.0, 303540.0, 303550.0, 303560.0, 303570.0, 303580.0, 303590.0, 303600.0, 303610.0, 303620.0, 303630.0, 303640.0, 303650.0, 303660.0, 303670.0, 303680.0, 303690.0, 303700.0, 303710.0, 303720.0, 303730.0, 303740.0, 303749]","example_experiment","30","21696","31","yes","768","0","[0, 0, 0, 0, 0, 0, 0, 0, 0, 0, 0, 0, 0, 0, 0, 0, 0, 0, 0, 0, 0, 0, 0, 0, 0, 0]","[0, 0, 0, 0, 0, 0, 0, 0, 0, 0, 0, 0, 0, 0, 0, 0, 0, 0, 0, 0, 0, 0, 0, 0, 0, 0, 0, 0, -2, -6, -13, -21, -31, -42, -53, -65, -77, -93, -111, -127, -141, -156, -167, -178, -186, -192, -198, -203, -210, -220, -229, -240, -249, -258, -265, -271, -276, -277, -278, -278, -280, -282, -286, -291, -295, -298, -300, -301, -301, -301, -301, -301, -301]","[0, 0, 0, 0, 0, 0, 0, 0, 0, 0, 0, 0, 0, 0, 0, 0, 0, 0, 0, 0, 0, 0, 0, 0, 0, 0]","[0, 0, 0, 0, 0, 0, 0, 0, 0, 0, 0, 0, 0, 0, 0, 0, 0, 0, 0, 0, 0, 0, 0, 0, 0, 0, 0, 0, 0, 0, 0, 0, 0, -1, -3, -3, -4, -5, -5, -6, -7, -8, -8, -9, -9, -9, -9, -8, -6, -4, -3, -3, -2, -2, -2, -3, -4, -5, -5, -5, -6, -6, -6, -6, -6, -6, -6, -6, -6, -6, -6, -6, -6]"
"96.875","96.875","705.0625","705.0625","black","no","block1","0","legacy","legacy","w.png","w.png","w.png","b.png","1","legacy","0","relative","1","undefined","NA","blue","NA","undefined","1","undefined","undefined","blue","3","0","3","0","31","0","NA","31","31","31","31","31","0","31","31","31","31","0","4","NA","NA","31","0","0","0","0","0","0","0","31","11/06/20 17:59:32","Default description","yes","simont_HV.osexp","C:\Users\admin\Desktop\임채은\!MouseTracking_final","no","sans","no","18","no","black","no","yes","768","340","None","340","None","legacy","1","29","1","C:/Users/admin/Desktop/임채은/!MouseTracking_final/subject-33.csv","legacy","1","1","0","Kafkaesque Koffka","3.2.6","0","blue","space","NA","None","blue","start","space","space","NA","NA","NA","866","112080","NA","250","866","552","30987","65526","NA","NA","NA","2","legacy","1024","2","48000","-16","experiment","33","odd","legacy","red","green","blue","yellow","2","32457","NA","NA","307035","1464","NA","305412","305916","306168","304858","176153","1468","307042","308042","305916","306168","235897","NA","NA","NA","304858","301423","NA","NA","NA","NA","NA","144537","304857","[305917.0, 305927.0, 305937.0, 305947.0, 305957.0, 305967.0, 305977.0, 305987.0, 305997.0, 306007.0, 306017.0, 306027.0, 306037.0, 306047.0, 306057.0, 306067.0, 306077.0, 306087.0, 306097.0, 306107.0, 306117.0, 306127.0, 306137.0, 306147.0, 306157.0, 306167.0]","[306168.0, 306178.0, 306188.0, 306198.0, 306208.0, 306218.0, 306228.0, 306238.0, 306248.0, 306258.0, 306268.0, 306278.0, 306288.0, 306298.0, 306308.0, 306318.0, 306328.0, 306338.0, 306348.0, 306358.0, 306368.0, 306378.0, 306388.0, 306398.0, 306408.0, 306418.0, 306428.0, 306438.0, 306448.0, 306458.0, 306468.0, 306478.0, 306488.0, 306498.0, 306508.0, 306518.0, 306528.0, 306538.0, 306548.0, 306558.0, 306568.0, 306578.0, 306588.0, 306598.0, 306608.0, 306618.0, 306628.0, 306638.0, 306648.0, 306658.0, 306668.0, 306678.0, 306688.0, 306698.0, 306708.0, 306718.0, 306728.0, 306738.0, 306748.0, 306758.0, 306768.0, 306778.0, 306788.0, 306798.0, 306808.0, 306818.0, 306828.0, 306838.0, 306848.0, 306858.0, 306868.0, 306878.0, 306888.0, 306898.0, 306908.0, 306918.0, 306928.0, 306938.0, 306948.0, 306958.0, 306968.0, 306978.0, 306988.0, 306998.0, 307008.0, 307018.0, 307028.0, 307034]","example_experiment","31","22562","32","yes","768","0","[0, 0, 0, 0, 0, 0, 0, 0, 0, 0, 0, 0, 0, 0, 0, 0, 0, 0, 0, 0, 0, 0, 0, 0, 0, 0]","[0, 0, 0, 0, 0, 0, 0, 0, 0, 0, 0, 0, 0, 0, 0, 0, 0, 0, 0, 0, 0, 0, 0, 0, 0, 0, 0, 0, 0, 0, 0, 0, 0, 0, 0, 0, 0, 0, 0, 0, 0, 0, 1, 1, 2, 2, 2, 2, 0, -1, -1, -2, -2, -3, -5, -6, -7, -8, -9, -10, -10, -11, -11, -11, -11, -10, -8, -7, -6, -5, -4, -4, -4, -4, -4, -4, -4, -4, -4, -3, -2, -1, -1, -1, -1, -1, -1, -1]","[0, 0, 0, 0, 0, 0, 0, 0, 0, 0, 0, 0, 0, 0, 0, 0, 0, 0, 0, 0, 0, 0, 0, 0, 0, 0]","[0, 0, 0, 0, 0, 0, 0, 0, 0, 0, 0, 0, 0, 0, 0, 0, 0, 0, 0, 0, 0, 0, 0, 0, 0, 0, 0, 0, 0, 0, 0, 0, 0, 0, 0, -1, -5, -11, -21, -34, -50, -65, -81, -98, -116, -135, -153, -168, -180, -189, -197, -203, -209, -214, -217, -219, -221, -223, -226, -231, -235, -240, -244, -248, -251, -255, -259, -262, -266, -270, -274, -277, -281, -284, -287, -290, -292, -294, -296, -298, -300, -302, -303, -305, -307, -308, -308, -308]"
