"acc","accuracy","average_response_time","avg_rt","background","bidi","block","btwC","canvas_backend","clock_backend","colD","colL","colR","colU","color","color_backend","compensation","coordinates","correct","correct_answerins","correct_button_get_response_bef","correct_button_get_response_pos","correct_button_get_start_click","correct_get_response_bef","correct_get_response_pos","correct_get_start_click","correct_instructions","correct_resp","correctkey","count_answerins","count_break1","count_break3","count_correct_f","count_experiment","count_feedback","count_fixation500s","count_get_response_bef","count_get_response_pos","count_get_start_click","count_incorrect_f","count_instructions","count_iti1000","count_logger","count_present_stimulus","count_present_stimulus2","count_start_gogo","count_start_gogo_1","count_start_gogo_1_1","count_start_gogo_1_2","count_start_screen","count_stimuli1","count_stimuli2","count_stimuli3","count_stimuli4","count_stimuli5","count_stimuli6","count_stimuli_prac","count_trial","datetime","description","disable_garbage_collection","experiment_file","experiment_path","font_bold","font_family","font_italic","font_size","font_underline","foreground","form_clicks","fullscreen","height","initiation_time","initiation_time_get_response_bef","initiation_time_get_response_pos","initiation_time_get_start_click","keyboard_backend","live_row","live_row_stimuli_prac","loc","logfile","mouse_backend","n0","n1","n2","opensesame_codename","opensesame_version","repeat_cycle","response","response_answerins","response_feedback","response_get_response_bef","response_get_response_pos","response_get_start_click","response_instructions","response_start_gogo","response_start_gogo_1","response_start_gogo_1_1","response_start_gogo_1_2","response_time","response_time_answerins","response_time_feedback","response_time_get_response_bef","response_time_get_response_pos","response_time_get_start_click","response_time_instructions","response_time_start_gogo","response_time_start_gogo_1","response_time_start_gogo_1_1","response_time_start_gogo_1_2","round_decimals","sampler_backend","sound_buf_size","sound_channels","sound_freq","sound_sample_size","start","subject_nr","subject_parity","synth_backend","tar1L","tar2R","tar3U","tar4D","taskType","time_answerins","time_break1","time_break3","time_correct_f","time_experiment","time_feedback","time_fixation500s","time_get_response_bef","time_get_response_pos","time_get_start_click","time_incorrect_f","time_instructions","time_iti1000","time_logger","time_present_stimulus","time_present_stimulus2","time_start_gogo","time_start_gogo_1","time_start_gogo_1_1","time_start_gogo_1_2","time_start_screen","time_stimuli1","time_stimuli2","time_stimuli3","time_stimuli4","time_stimuli5","time_stimuli6","time_stimuli_prac","time_trial","timestamps_get_response_bef","timestamps_get_response_pos","title","total_correct","total_response_time","total_responses","uniform_coordinates","width","withC","xpos_get_response_bef","xpos_get_response_pos","ypos_get_response_bef","ypos_get_response_pos"
"100","100","813","813","black","no","prac","0","legacy","legacy","w.png","w.png","r.png","w.png","1","legacy","0","relative","1","undefined","NA","red","NA","undefined","1","undefined","undefined","red","1","0","3","0","0","0","NA","0","0","0","0","0","0","0","0","0","0","0","4","NA","NA","0","0","0","0","0","0","0","0","0","11/03/20 13:55:58","Default description","yes","simont_HV.osexp","C:\Users\admin\Desktop\임채은\!MouseTracking_final","no","sans","no","18","no","black","no","yes","768","10","0","10","0","legacy","0","0","2","C:/Users/admin/Desktop/임채은/!MouseTracking_final/subject-21.csv","legacy","2","0","0","Kafkaesque Koffka","3.2.6","0","red","space","NA","None","red","start","space","NA","NA","NA","NA","813","109184","NA","250","813","795","16228","NA","NA","NA","NA","2","legacy","1024","2","48000","-16","experiment","21","odd","legacy","red","green","blue","yellow","1","18261","NA","NA","129879","2029","NA","128310","128814","129066","127508","NA","2032","129895","130895","128814","129066","NA","NA","NA","NA","127508","NA","NA","NA","NA","NA","NA","127445","127507","[128815.0, 128825.0, 128835.0, 128845.0, 128855.0, 128865.0, 128875.0, 128885.0, 128895.0, 128905.0, 128915.0, 128925.0, 128935.0, 128945.0, 128955.0, 128965.0, 128975.0, 128985.0, 128995.0, 129005.0, 129015.0, 129025.0, 129035.0, 129045.0, 129055.0, 129065.0]","[129066.0, 129076.0, 129086.0, 129096.0, 129106.0, 129116.0, 129126.0, 129136.0, 129146.0, 129156.0, 129166.0, 129176.0, 129186.0, 129196.0, 129206.0, 129216.0, 129226.0, 129236.0, 129246.0, 129256.0, 129266.0, 129276.0, 129286.0, 129296.0, 129306.0, 129316.0, 129326.0, 129336.0, 129346.0, 129356.0, 129366.0, 129376.0, 129386.0, 129396.0, 129406.0, 129416.0, 129426.0, 129436.0, 129446.0, 129456.0, 129466.0, 129476.0, 129486.0, 129496.0, 129506.0, 129516.0, 129526.0, 129536.0, 129546.0, 129556.0, 129566.0, 129576.0, 129586.0, 129596.0, 129606.0, 129616.0, 129626.0, 129636.0, 129646.0, 129656.0, 129666.0, 129676.0, 129686.0, 129696.0, 129706.0, 129716.0, 129726.0, 129736.0, 129746.0, 129756.0, 129766.0, 129776.0, 129786.0, 129796.0, 129806.0, 129816.0, 129826.0, 129836.0, 129846.0, 129856.0, 129866.0, 129876.0, 129879]","example_experiment","1","813","1","yes","768","0","[0, -4, -10, -16, -24, -31, -37, -41, -44, -45, -46, -47, -47, -47, -47, -47, -47, -47, -47, -47, -47, -47, -47, -47, -47, -47]","[-47, -47, -46, -44, -42, -42, -40, -38, -34, -30, -23, -15, -6, 3, 13, 22, 30, 37, 46, 56, 65, 76, 84, 90, 94, 96, 96, 95, 91, 83, 72, 56, 36, 8, -25, -58, -95, -129, -159, -182, -199, -208, -212, -212, -212, -212, -212, -212, -211, -211, -211, -211, -211, -211, -211, -211, -213, -216, -222, -228, -234, -240, -247, -253, -258, -264, -270, -277, -286, -292, -297, -301, -302, -303, -303, -303, -303, -303, -303, -303, -304, -304, -304]","[0, 2, 5, 8, 11, 15, 18, 20, 21, 22, 23, 24, 24, 24, 24, 24, 24, 24, 24, 24, 24, 24, 24, 24, 24, 24]","[24, 24, 25, 26, 27, 27, 28, 28, 29, 31, 33, 35, 37, 38, 40, 42, 43, 45, 47, 49, 49, 50, 50, 50, 50, 50, 50, 50, 50, 50, 48, 46, 43, 39, 33, 27, 21, 15, 11, 8, 4, 2, 0, 0, 0, 0, 0, -1, -1, -1, -1, -1, -1, -1, -1, -1, -1, -1, -1, -1, -1, -1, -1, -1, -1, -1, -1, -1, -1, -1, -1, -1, -1, -1, -1, -1, -1, -1, -1, -1, -1, -1, -1]"
"100","100","770.5","770.5","black","no","prac","0","legacy","legacy","w.png","w.png","w.png","b.png","1","legacy","0","relative","1","undefined","NA","blue","NA","undefined","1","undefined","undefined","blue","3","0","3","0","1","0","NA","1","1","1","1","1","0","1","1","1","1","0","4","NA","NA","1","0","0","0","0","0","0","0","1","11/03/20 13:55:58","Default description","yes","simont_HV.osexp","C:\Users\admin\Desktop\임채은\!MouseTracking_final","no","sans","no","18","no","black","no","yes","768","10","0","10","0","legacy","1","1","1","C:/Users/admin/Desktop/임채은/!MouseTracking_final/subject-21.csv","legacy","1","2","0","Kafkaesque Koffka","3.2.6","0","blue","space","NA","None","blue","start","space","NA","NA","NA","NA","728","109184","NA","250","728","985","16228","NA","NA","NA","NA","2","legacy","1024","2","48000","-16","experiment","21","odd","legacy","red","green","blue","yellow","2","18261","NA","NA","133476","2029","NA","131992","132496","132748","131006","NA","2032","133485","134485","132496","132748","NA","NA","NA","NA","131006","NA","NA","NA","NA","NA","NA","127445","131004","[132497.0, 132507.0, 132517.0, 132527.0, 132537.0, 132547.0, 132557.0, 132567.0, 132577.0, 132587.0, 132597.0, 132607.0, 132617.0, 132627.0, 132637.0, 132647.0, 132657.0, 132667.0, 132677.0, 132687.0, 132697.0, 132707.0, 132717.0, 132727.0, 132737.0, 132747.0]","[132748.0, 132758.0, 132768.0, 132778.0, 132788.0, 132798.0, 132808.0, 132818.0, 132828.0, 132838.0, 132848.0, 132858.0, 132868.0, 132878.0, 132888.0, 132898.0, 132908.0, 132918.0, 132928.0, 132938.0, 132948.0, 132958.0, 132968.0, 132978.0, 132988.0, 132998.0, 133008.0, 133018.0, 133028.0, 133038.0, 133048.0, 133058.0, 133068.0, 133078.0, 133088.0, 133098.0, 133108.0, 133118.0, 133128.0, 133138.0, 133148.0, 133158.0, 133168.0, 133178.0, 133188.0, 133198.0, 133208.0, 133218.0, 133228.0, 133238.0, 133248.0, 133258.0, 133268.0, 133278.0, 133288.0, 133298.0, 133308.0, 133318.0, 133328.0, 133338.0, 133348.0, 133358.0, 133368.0, 133378.0, 133388.0, 133398.0, 133408.0, 133418.0, 133428.0, 133438.0, 133448.0, 133458.0, 133468.0, 133476]","example_experiment","2","1541","2","yes","768","0","[0, 0, -1, -4, -7, -9, -11, -12, -13, -13, -14, -14, -15, -16, -16, -16, -16, -16, -17, -17, -17, -17, -17, -17, -17, -17]","[-17, -17, -17, -16, -12, -9, -5, -1, 3, 7, 10, 12, 14, 15, 16, 16, 16, 16, 16, 16, 16, 14, 12, 10, 9, 7, 7, 7, 7, 8, 9, 10, 12, 13, 14, 15, 17, 17, 17, 17, 17, 17, 17, 17, 17, 17, 16, 15, 14, 12, 10, 8, 6, 5, 3, 2, 1, 1, 1, 1, 1, 1, 2, 2, 3, 3, 3, 3, 3, 3, 3, 3, 3, 3]","[0, 1, 1, 3, 5, 8, 9, 10, 11, 11, 11, 11, 12, 12, 13, 13, 13, 13, 13, 13, 13, 13, 13, 13, 13, 13]","[13, 13, 11, 4, -8, -24, -42, -59, -75, -90, -99, -108, -115, -119, -122, -125, -126, -129, -132, -135, -138, -143, -149, -155, -161, -167, -172, -177, -183, -189, -195, -204, -215, -225, -235, -241, -246, -249, -250, -251, -251, -251, -251, -251, -252, -253, -255, -256, -258, -260, -263, -266, -270, -274, -278, -282, -285, -288, -290, -292, -295, -296, -298, -299, -300, -301, -303, -305, -307, -309, -311, -312, -313, -313]"
"100","100","1041.33333333","1041.33333333","black","no","prac","2","legacy","legacy","w.png","g.png","w.png","w.png","2","legacy","0","relative","1","undefined","NA","green","NA","undefined","1","undefined","undefined","green","2","0","3","0","2","0","NA","2","2","2","2","2","0","2","2","2","2","0","4","NA","NA","2","0","0","0","0","0","0","0","2","11/03/20 13:55:58","Default description","yes","simont_HV.osexp","C:\Users\admin\Desktop\임채은\!MouseTracking_final","no","sans","no","18","no","black","no","yes","768","0","0","0","60","legacy","2","2","1","C:/Users/admin/Desktop/임채은/!MouseTracking_final/subject-21.csv","legacy","2","1","2","Kafkaesque Koffka","3.2.6","0","green","space","NA","None","green","start","space","NA","NA","NA","NA","1583","109184","NA","250","1583","545","16228","NA","NA","NA","NA","2","legacy","1024","2","48000","-16","experiment","21","odd","legacy","red","green","blue","yellow","1","18261","NA","NA","137456","2029","NA","135117","135621","135873","134571","NA","2032","137465","138465","135621","135873","NA","NA","NA","NA","134571","NA","NA","NA","NA","NA","NA","127445","134570","[135622.0, 135632.0, 135642.0, 135652.0, 135662.0, 135672.0, 135682.0, 135692.0, 135702.0, 135712.0, 135722.0, 135732.0, 135742.0, 135752.0, 135762.0, 135772.0, 135782.0, 135792.0, 135802.0, 135812.0, 135822.0, 135832.0, 135842.0, 135852.0, 135862.0, 135872.0]","[135873.0, 135883.0, 135893.0, 135903.0, 135913.0, 135923.0, 135933.0, 135943.0, 135953.0, 135963.0, 135973.0, 135983.0, 135993.0, 136003.0, 136013.0, 136023.0, 136033.0, 136043.0, 136053.0, 136063.0, 136073.0, 136083.0, 136093.0, 136103.0, 136113.0, 136123.0, 136133.0, 136143.0, 136153.0, 136163.0, 136173.0, 136183.0, 136193.0, 136203.0, 136213.0, 136223.0, 136233.0, 136243.0, 136253.0, 136263.0, 136273.0, 136283.0, 136293.0, 136303.0, 136313.0, 136323.0, 136333.0, 136343.0, 136353.0, 136363.0, 136373.0, 136383.0, 136393.0, 136403.0, 136413.0, 136423.0, 136433.0, 136443.0, 136453.0, 136463.0, 136473.0, 136483.0, 136493.0, 136503.0, 136513.0, 136523.0, 136533.0, 136543.0, 136553.0, 136563.0, 136573.0, 136583.0, 136593.0, 136603.0, 136613.0, 136623.0, 136633.0, 136643.0, 136653.0, 136663.0, 136673.0, 136683.0, 136693.0, 136703.0, 136713.0, 136723.0, 136733.0, 136743.0, 136753.0, 136763.0, 136773.0, 136783.0, 136793.0, 136803.0, 136813.0, 136823.0, 136833.0, 136843.0, 136853.0, 136863.0, 136873.0, 136883.0, 136893.0, 136903.0, 136913.0, 136923.0, 136933.0, 136943.0, 136953.0, 136963.0, 136973.0, 136983.0, 136993.0, 137003.0, 137013.0, 137023.0, 137033.0, 137043.0, 137053.0, 137063.0, 137073.0, 137083.0, 137093.0, 137103.0, 137113.0, 137123.0, 137133.0, 137143.0, 137153.0, 137163.0, 137173.0, 137183.0, 137193.0, 137203.0, 137213.0, 137223.0, 137233.0, 137243.0, 137253.0, 137263.0, 137273.0, 137283.0, 137293.0, 137303.0, 137313.0, 137323.0, 137333.0, 137343.0, 137353.0, 137363.0, 137373.0, 137383.0, 137393.0, 137403.0, 137413.0, 137423.0, 137433.0, 137443.0, 137453.0, 137456]","example_experiment","3","3124","3","yes","768","4","[0, 3, 5, 7, 9, 10, 11, 11, 11, 11, 11, 12, 12, 12, 13, 13, 14, 14, 14, 14, 14, 10, 5, -2, -14, -27]","[-30, -45, -64, -85, -108, -129, -147, -158, -163, -165, -165, -164, -161, -152, -132, -97, -48, 14, 82, 154, 215, 270, 311, 339, 354, 359, 359, 355, 347, 337, 326, 316, 306, 297, 287, 279, 273, 268, 263, 258, 249, 235, 219, 199, 171, 139, 107, 83, 67, 57, 47, 40, 34, 30, 26, 23, 19, 17, 15, 16, 23, 35, 50, 73, 97, 123, 149, 171, 196, 219, 240, 262, 280, 299, 322, 345, 362, 378, 389, 396, 402, 408, 412, 414, 414, 414, 412, 409, 403, 395, 385, 376, 361, 349, 334, 317, 301, 280, 258, 233, 210, 191, 176, 165, 159, 154, 145, 135, 121, 109, 95, 87, 81, 79, 78, 78, 84, 98, 122, 156, 197, 234, 264, 290, 312, 334, 352, 367, 375, 376, 377, 376, 372, 367, 359, 353, 348, 345, 343, 341, 340, 338, 337, 336, 334, 332, 330, 328, 326, 325, 324, 322, 321, 320, 319, 319, 319, 319, 319, 319]","[0, 12, 19, 22, 22, 23, 23, 23, 23, 23, 23, 22, 22, 20, 19, 18, 17, 16, 16, 15, 13, 11, 5, 0, -7, -14]","[-16, -20, -24, -27, -30, -32, -32, -32, -31, -29, -28, -26, -24, -21, -16, -8, 0, 8, 15, 20, 22, 24, 24, 24, 21, 20, 19, 17, 14, 12, 10, 8, 7, 5, 4, 3, 3, 3, 4, 8, 14, 23, 31, 38, 42, 46, 51, 58, 65, 72, 79, 86, 95, 102, 111, 124, 137, 150, 164, 181, 194, 204, 210, 215, 218, 218, 218, 216, 212, 206, 198, 189, 181, 170, 156, 141, 127, 112, 101, 93, 86, 80, 76, 73, 70, 69, 67, 65, 62, 60, 56, 54, 52, 50, 49, 48, 48, 46, 44, 41, 38, 35, 32, 29, 27, 24, 20, 15, 12, 10, 9, 9, 9, 9, 9, 9, 9, 9, 9, 16, 27, 39, 50, 60, 67, 76, 84, 88, 88, 88, 86, 81, 75, 69, 63, 57, 54, 50, 47, 43, 40, 38, 36, 33, 31, 28, 25, 22, 19, 17, 14, 11, 8, 5, 3, 2, 1, 1, 1, 1]"
"100","100","948.25","948.25","black","no","prac","3","legacy","legacy","w.png","w.png","w.png","b.png","1","legacy","0","relative","1","undefined","NA","blue","NA","undefined","1","undefined","undefined","blue","3","0","3","0","3","0","NA","3","3","3","3","3","0","3","3","3","3","0","4","NA","NA","3","0","0","0","0","0","0","0","3","11/03/20 13:55:58","Default description","yes","simont_HV.osexp","C:\Users\admin\Desktop\임채은\!MouseTracking_final","no","sans","no","18","no","black","no","yes","768","0","0","0","200","legacy","3","3","1","C:/Users/admin/Desktop/임채은/!MouseTracking_final/subject-21.csv","legacy","1","2","1","Kafkaesque Koffka","3.2.6","0","blue","space","NA","None","blue","start","space","NA","NA","NA","NA","669","109184","NA","250","669","494","16228","NA","NA","NA","NA","2","legacy","1024","2","48000","-16","experiment","21","odd","legacy","red","green","blue","yellow","2","18261","NA","NA","140486","2029","NA","139063","139565","139817","138568","NA","2032","140495","141495","139565","139817","NA","NA","NA","NA","138568","NA","NA","NA","NA","NA","NA","127445","138566","[139566.0, 139576.0, 139586.0, 139596.0, 139606.0, 139616.0, 139626.0, 139636.0, 139646.0, 139656.0, 139666.0, 139676.0, 139686.0, 139696.0, 139706.0, 139716.0, 139726.0, 139736.0, 139746.0, 139756.0, 139766.0, 139776.0, 139786.0, 139796.0, 139806.0, 139816.0]","[139817.0, 139827.0, 139837.0, 139847.0, 139857.0, 139867.0, 139877.0, 139887.0, 139897.0, 139907.0, 139917.0, 139927.0, 139937.0, 139947.0, 139957.0, 139967.0, 139977.0, 139987.0, 139997.0, 140007.0, 140017.0, 140027.0, 140037.0, 140047.0, 140057.0, 140067.0, 140077.0, 140087.0, 140097.0, 140107.0, 140117.0, 140127.0, 140137.0, 140147.0, 140157.0, 140167.0, 140177.0, 140187.0, 140197.0, 140207.0, 140217.0, 140227.0, 140237.0, 140247.0, 140257.0, 140267.0, 140277.0, 140287.0, 140297.0, 140307.0, 140317.0, 140327.0, 140337.0, 140347.0, 140357.0, 140367.0, 140377.0, 140387.0, 140397.0, 140407.0, 140417.0, 140427.0, 140437.0, 140447.0, 140457.0, 140467.0, 140477.0, 140486]","example_experiment","4","3793","4","yes","768","1","[0, -2, -3, -4, -5, -6, -7, -7, -8, -9, -9, -9, -9, -9, -9, -9, -9, -9, -9, -9, -9, -6, -1, 3, 7, 10]","[10, 12, 14, 17, 18, 20, 20, 20, 21, 21, 21, 21, 21, 21, 21, 22, 23, 25, 27, 27, 28, 30, 35, 41, 46, 46, 45, 39, 31, 24, 20, 17, 16, 16, 16, 16, 16, 16, 16, 16, 16, 16, 16, 16, 16, 16, 16, 16, 16, 16, 16, 16, 16, 14, 13, 13, 12, 12, 12, 13, 15, 15, 15, 15, 15, 15, 15, 14]","[0, 2, 3, 5, 7, 8, 9, 10, 10, 10, 11, 12, 12, 12, 12, 12, 12, 12, 12, 12, 12, 11, 8, 5, 1, -3]","[-4, -8, -13, -19, -24, -25, -25, -25, -25, -23, -19, -15, -11, -5, 3, 12, 19, 24, 26, 27, 27, 24, 12, -11, -38, -68, -96, -124, -150, -174, -197, -216, -229, -238, -244, -248, -249, -249, -249, -249, -249, -249, -249, -249, -249, -249, -249, -249, -249, -249, -250, -255, -263, -269, -276, -282, -288, -293, -298, -301, -304, -306, -309, -312, -314, -315, -316, -316]"
"100","100","861.4","861.4","black","no","prac","1","legacy","legacy","w.png","w.png","g.png","w.png","2","legacy","0","relative","1","undefined","NA","green","NA","undefined","1","undefined","undefined","green","2","0","3","0","4","0","NA","4","4","4","4","4","0","4","4","4","4","0","4","NA","NA","4","0","0","0","0","0","0","0","4","11/03/20 13:55:58","Default description","yes","simont_HV.osexp","C:\Users\admin\Desktop\임채은\!MouseTracking_final","no","sans","no","18","no","black","no","yes","768","10","170","10","None","legacy","4","4","2","C:/Users/admin/Desktop/임채은/!MouseTracking_final/subject-21.csv","legacy","1","1","2","Kafkaesque Koffka","3.2.6","0","green","space","NA","None","green","start","space","NA","NA","NA","NA","514","109184","NA","250","514","365","16228","NA","NA","NA","NA","2","legacy","1024","2","48000","-16","experiment","21","odd","legacy","red","green","blue","yellow","1","18261","NA","NA","143256","2029","NA","141986","142490","142742","141620","NA","2032","143275","144275","142490","142742","NA","NA","NA","NA","141620","NA","NA","NA","NA","NA","NA","127445","141618","[142491.0, 142501.0, 142511.0, 142521.0, 142531.0, 142541.0, 142551.0, 142561.0, 142571.0, 142581.0, 142591.0, 142601.0, 142611.0, 142621.0, 142631.0, 142641.0, 142651.0, 142661.0, 142671.0, 142681.0, 142691.0, 142701.0, 142711.0, 142721.0, 142731.0, 142741.0]","[142742.0, 142752.0, 142762.0, 142772.0, 142782.0, 142792.0, 142802.0, 142812.0, 142822.0, 142832.0, 142842.0, 142852.0, 142862.0, 142872.0, 142882.0, 142892.0, 142902.0, 142912.0, 142922.0, 142932.0, 142942.0, 142952.0, 142962.0, 142972.0, 142982.0, 142992.0, 143002.0, 143012.0, 143022.0, 143032.0, 143042.0, 143052.0, 143062.0, 143072.0, 143082.0, 143092.0, 143102.0, 143112.0, 143122.0, 143132.0, 143142.0, 143152.0, 143162.0, 143172.0, 143182.0, 143192.0, 143202.0, 143212.0, 143222.0, 143232.0, 143242.0, 143252.0, 143256]","example_experiment","5","4307","5","yes","768","3","[0, 0, 0, 0, 0, 0, 0, 0, 0, 0, 0, 0, 0, 0, 0, 0, 0, 0, -1, -2, -2, -2, -2, -2, -2, -2]","[-2, -2, -1, 4, 15, 30, 44, 62, 82, 100, 120, 137, 144, 146, 145, 140, 134, 129, 127, 125, 125, 125, 127, 131, 139, 152, 171, 194, 216, 234, 256, 277, 295, 310, 321, 328, 330, 330, 329, 326, 322, 317, 310, 305, 302, 301, 300, 300, 300, 300, 300, 300, 300]","[0, 0, 0, 0, 0, 0, 0, 0, 0, 0, 0, 0, 0, 0, 0, 0, 0, 0, 0, 0, 0, 0, 0, 0, 0, 0]","[0, 0, 1, 3, 4, 4, 5, 5, 5, 6, 6, 8, 9, 12, 15, 21, 31, 42, 52, 60, 66, 70, 73, 78, 87, 100, 112, 121, 123, 118, 109, 98, 86, 74, 62, 52, 44, 39, 35, 33, 30, 27, 25, 23, 23, 22, 22, 22, 20, 19, 19, 19, 19]"
"100","100","835.833333333","835.833333333","black","no","prac","1","legacy","legacy","y.png","w.png","w.png","w.png","2","legacy","0","relative","1","undefined","NA","yellow","NA","undefined","1","undefined","undefined","yellow","4","0","3","0","5","0","NA","5","5","5","5","5","0","5","5","5","5","0","4","NA","NA","5","0","0","0","0","0","0","0","5","11/03/20 13:55:58","Default description","yes","simont_HV.osexp","C:\Users\admin\Desktop\임채은\!MouseTracking_final","no","sans","no","18","no","black","no","yes","768","0","160","0","0","legacy","5","5","2","C:/Users/admin/Desktop/임채은/!MouseTracking_final/subject-21.csv","legacy","1","1","1","Kafkaesque Koffka","3.2.6","0","yellow","space","NA","None","yellow","start","space","NA","NA","NA","NA","708","109184","NA","250","708","564","16228","NA","NA","NA","NA","2","legacy","1024","2","48000","-16","experiment","21","odd","legacy","red","green","blue","yellow","2","18261","NA","NA","146424","2029","NA","144960","145464","145716","144394","NA","2032","146455","147455","145464","145716","NA","NA","NA","NA","144394","NA","NA","NA","NA","NA","NA","127445","144393","[145465.0, 145475.0, 145485.0, 145495.0, 145505.0, 145515.0, 145525.0, 145535.0, 145545.0, 145555.0, 145565.0, 145575.0, 145585.0, 145595.0, 145605.0, 145615.0, 145625.0, 145635.0, 145645.0, 145655.0, 145665.0, 145675.0, 145685.0, 145695.0, 145705.0, 145715.0]","[145716.0, 145726.0, 145736.0, 145746.0, 145756.0, 145766.0, 145776.0, 145786.0, 145796.0, 145806.0, 145816.0, 145826.0, 145836.0, 145846.0, 145856.0, 145866.0, 145876.0, 145886.0, 145896.0, 145906.0, 145916.0, 145926.0, 145936.0, 145946.0, 145956.0, 145966.0, 145976.0, 145986.0, 145996.0, 146006.0, 146016.0, 146026.0, 146036.0, 146046.0, 146056.0, 146066.0, 146076.0, 146086.0, 146096.0, 146106.0, 146116.0, 146126.0, 146136.0, 146146.0, 146156.0, 146166.0, 146176.0, 146186.0, 146196.0, 146206.0, 146216.0, 146226.0, 146236.0, 146246.0, 146256.0, 146266.0, 146276.0, 146286.0, 146296.0, 146306.0, 146316.0, 146326.0, 146336.0, 146346.0, 146356.0, 146366.0, 146376.0, 146386.0, 146396.0, 146406.0, 146416.0, 146424]","example_experiment","6","5015","6","yes","768","1","[0, 0, 0, 0, 0, 0, 0, 0, 0, 0, 0, 0, 0, 0, 0, 0, 0, 2, 3, 4, 5, 5, 5, 6, 8, 9]","[10, 10, 10, 10, 10, 10, 10, 10, 10, 12, 14, 15, 15, 15, 15, 15, 15, 15, 15, 15, 15, 15, 15, 16, 17, 18, 19, 19, 20, 20, 22, 25, 28, 32, 35, 39, 43, 45, 46, 46, 45, 40, 32, 23, 13, 3, -7, -14, -19, -19, -19, -16, -12, -6, -2, 1, 4, 5, 6, 6, 7, 7, 7, 8, 9, 11, 14, 18, 20, 21, 21, 21]","[0, 0, 0, 0, 0, 0, 0, 0, 0, 0, 0, 0, 0, 0, 0, 0, 0, -2, -3, -4, -5, -5, -5, -6, -7, -7]","[-6, -3, 3, 12, 28, 50, 69, 84, 98, 109, 116, 125, 133, 140, 148, 155, 161, 164, 167, 169, 171, 173, 178, 183, 190, 197, 203, 210, 215, 221, 226, 233, 242, 253, 264, 276, 286, 296, 304, 311, 319, 326, 337, 349, 362, 374, 383, 383, 383, 383, 383, 381, 376, 370, 366, 362, 358, 354, 350, 346, 341, 337, 335, 333, 331, 328, 325, 321, 320, 319, 319, 319]"
"100","100","774.571428571","774.571428571","black","no","prac","2","legacy","legacy","w.png","w.png","r.png","w.png","1","legacy","0","relative","1","undefined","NA","red","NA","undefined","1","undefined","undefined","red","1","0","3","0","6","0","NA","6","6","6","6","6","0","6","6","6","6","0","4","NA","NA","6","0","0","0","0","0","0","0","6","11/03/20 13:55:58","Default description","yes","simont_HV.osexp","C:\Users\admin\Desktop\임채은\!MouseTracking_final","no","sans","no","18","no","black","no","yes","768","30","None","30","210","legacy","6","6","2","C:/Users/admin/Desktop/임채은/!MouseTracking_final/subject-21.csv","legacy","2","1","1","Kafkaesque Koffka","3.2.6","0","red","space","NA","None","red","start","space","NA","NA","NA","NA","407","109184","NA","250","407","599","16228","NA","NA","NA","NA","2","legacy","1024","2","48000","-16","experiment","21","odd","legacy","red","green","blue","yellow","1","18261","NA","NA","149321","2029","NA","148158","148662","148914","147558","NA","2032","149335","150335","148662","148914","NA","NA","NA","NA","147558","NA","NA","NA","NA","NA","NA","127445","147557","[148663.0, 148673.0, 148683.0, 148693.0, 148703.0, 148713.0, 148723.0, 148733.0, 148743.0, 148753.0, 148763.0, 148773.0, 148783.0, 148793.0, 148803.0, 148813.0, 148823.0, 148833.0, 148843.0, 148853.0, 148863.0, 148873.0, 148883.0, 148893.0, 148903.0, 148913.0]","[148914.0, 148924.0, 148934.0, 148944.0, 148954.0, 148964.0, 148974.0, 148984.0, 148994.0, 149004.0, 149014.0, 149024.0, 149034.0, 149044.0, 149054.0, 149064.0, 149074.0, 149084.0, 149094.0, 149104.0, 149114.0, 149124.0, 149134.0, 149144.0, 149154.0, 149164.0, 149174.0, 149184.0, 149194.0, 149204.0, 149214.0, 149224.0, 149234.0, 149244.0, 149254.0, 149264.0, 149274.0, 149284.0, 149294.0, 149304.0, 149314.0, 149321]","example_experiment","7","5422","7","yes","768","2","[0, 0, 0, 0, 0, 0, 0, 0, 0, 0, 0, 0, 0, 0, 0, 0, 0, 0, 0, 0, 0, 0, 0, 0, 0, 0]","[0, 0, 0, 0, 1, 1, 1, 1, 0, -6, -14, -27, -43, -58, -78, -101, -130, -164, -203, -237, -265, -288, -304, -312, -317, -318, -318, -318, -318, -316, -315, -315, -315, -315, -315, -315, -315, -315, -315, -315, -315, -315]","[0, 0, 0, 0, 0, 0, 0, 0, 0, 0, 0, 0, 0, 0, 0, 0, 0, 0, 0, 0, 0, 0, 0, 0, 0, 0]","[0, 0, 0, 0, -1, -1, -1, -1, -1, 1, 4, 6, 9, 10, 10, 9, 6, 3, -1, -1, -1, -1, -1, -1, 0, 0, 0, 0, 1, 1, 1, 1, 1, 1, 1, 1, 1, 1, 1, 1, 1, 1]"
"100","100","752.375","752.375","black","no","prac","4","legacy","legacy","w.png","w.png","w.png","y.png","2","legacy","0","relative","1","undefined","NA","yellow","NA","undefined","1","undefined","undefined","yellow","4","0","3","0","7","0","NA","7","7","7","7","7","0","7","7","7","7","0","4","NA","NA","7","0","0","0","0","0","0","0","7","11/03/20 13:55:58","Default description","yes","simont_HV.osexp","C:\Users\admin\Desktop\임채은\!MouseTracking_final","no","sans","no","18","no","black","no","yes","768","110","None","110","None","legacy","7","7","1","C:/Users/admin/Desktop/임채은/!MouseTracking_final/subject-21.csv","legacy","2","2","1","Kafkaesque Koffka","3.2.6","0","yellow","space","NA","None","yellow","start","space","NA","NA","NA","NA","597","109184","NA","250","597","300","16228","NA","NA","NA","NA","2","legacy","1024","2","48000","-16","experiment","21","odd","legacy","red","green","blue","yellow","2","18261","NA","NA","152097","2029","NA","150744","151248","151500","150443","NA","2032","152105","153105","151248","151500","NA","NA","NA","NA","150443","NA","NA","NA","NA","NA","NA","127445","150442","[151249.0, 151259.0, 151269.0, 151279.0, 151289.0, 151299.0, 151309.0, 151319.0, 151329.0, 151339.0, 151349.0, 151359.0, 151369.0, 151379.0, 151389.0, 151399.0, 151409.0, 151419.0, 151429.0, 151439.0, 151449.0, 151459.0, 151469.0, 151479.0, 151489.0, 151499.0]","[151500.0, 151510.0, 151520.0, 151530.0, 151540.0, 151550.0, 151560.0, 151570.0, 151580.0, 151590.0, 151600.0, 151610.0, 151620.0, 151630.0, 151640.0, 151650.0, 151660.0, 151670.0, 151680.0, 151690.0, 151700.0, 151710.0, 151720.0, 151730.0, 151740.0, 151750.0, 151760.0, 151770.0, 151780.0, 151790.0, 151800.0, 151810.0, 151820.0, 151830.0, 151840.0, 151850.0, 151860.0, 151870.0, 151880.0, 151890.0, 151900.0, 151910.0, 151920.0, 151930.0, 151940.0, 151950.0, 151960.0, 151970.0, 151980.0, 151990.0, 152000.0, 152010.0, 152020.0, 152030.0, 152040.0, 152050.0, 152060.0, 152070.0, 152080.0, 152090.0, 152097]","example_experiment","8","6019","8","yes","768","2","[0, 0, 0, 0, 0, 0, 0, 0, 0, 0, 0, 0, 0, 0, 0, 0, 0, 0, 0, 0, 0, 0, 0, 0, 0, 0]","[0, 0, 0, 0, 0, 0, 0, 0, 0, 0, 0, 0, 0, 0, 0, 0, -1, -1, -1, 3, 11, 24, 38, 51, 63, 74, 79, 82, 84, 84, 84, 84, 82, 79, 75, 71, 68, 66, 62, 58, 52, 45, 37, 30, 24, 20, 17, 14, 12, 9, 6, 3, -1, -7, -11, -15, -17, -18, -19, -19, -19]","[0, 0, 0, 0, 0, 0, 0, 0, 0, 0, 0, 0, 0, 0, 0, 0, 0, 0, 0, 0, 0, 0, 0, 0, 0, 0]","[0, 0, 0, 0, 0, 0, 0, 0, 0, 0, 0, 0, 2, 5, 11, 19, 27, 38, 55, 80, 111, 147, 184, 217, 242, 262, 273, 282, 288, 295, 301, 304, 306, 307, 307, 306, 304, 300, 294, 286, 279, 272, 267, 266, 266, 266, 266, 269, 271, 274, 275, 276, 277, 280, 282, 286, 289, 291, 293, 293, 293]"
"100","100","725.222222222","725.222222222","black","no","prac","3","legacy","legacy","w.png","r.png","w.png","w.png","1","legacy","0","relative","1","undefined","NA","red","NA","undefined","1","undefined","undefined","red","1","0","3","0","8","0","NA","8","8","8","8","8","0","8","8","8","8","0","4","NA","NA","8","0","0","0","0","0","0","0","8","11/03/20 13:55:58","Default description","yes","simont_HV.osexp","C:\Users\admin\Desktop\임채은\!MouseTracking_final","no","sans","no","18","no","black","no","yes","768","40","None","40","None","legacy","8","8","1","C:/Users/admin/Desktop/임채은/!MouseTracking_final/subject-21.csv","legacy","1","2","2","Kafkaesque Koffka","3.2.6","0","red","space","NA","None","red","start","space","NA","NA","NA","NA","508","109184","NA","250","508","530","16228","NA","NA","NA","NA","2","legacy","1024","2","48000","-16","experiment","21","odd","legacy","red","green","blue","yellow","1","18261","NA","NA","155015","2029","NA","153751","154255","154507","153220","NA","2032","155025","156025","154255","154507","NA","NA","NA","NA","153220","NA","NA","NA","NA","NA","NA","127445","153218","[154256.0, 154266.0, 154276.0, 154286.0, 154296.0, 154306.0, 154316.0, 154326.0, 154336.0, 154346.0, 154356.0, 154366.0, 154376.0, 154386.0, 154396.0, 154406.0, 154416.0, 154426.0, 154436.0, 154446.0, 154456.0, 154466.0, 154476.0, 154486.0, 154496.0, 154506.0]","[154507.0, 154517.0, 154527.0, 154537.0, 154547.0, 154557.0, 154567.0, 154577.0, 154587.0, 154597.0, 154607.0, 154617.0, 154627.0, 154637.0, 154647.0, 154657.0, 154667.0, 154677.0, 154687.0, 154697.0, 154707.0, 154717.0, 154727.0, 154737.0, 154747.0, 154757.0, 154767.0, 154777.0, 154787.0, 154797.0, 154807.0, 154817.0, 154827.0, 154837.0, 154847.0, 154857.0, 154867.0, 154877.0, 154887.0, 154897.0, 154907.0, 154917.0, 154927.0, 154937.0, 154947.0, 154957.0, 154967.0, 154977.0, 154987.0, 154997.0, 155007.0, 155015]","example_experiment","9","6527","9","yes","768","3","[0, 0, 0, 0, 0, 0, 0, 0, 0, 0, 0, 0, 0, 0, 0, 0, 0, 0, 0, 0, 0, 0, 0, 0, 0, 0]","[0, 0, 0, 0, 0, -1, -1, -2, -2, -2, -3, -5, -10, -18, -30, -47, -63, -81, -96, -112, -130, -148, -171, -190, -212, -230, -243, -254, -261, -266, -268, -269, -269, -269, -269, -269, -272, -277, -282, -287, -291, -294, -295, -295, -295, -295, -295, -295, -295, -295, -295, -295]","[0, 0, 0, 0, 0, 0, 0, 0, 0, 0, 0, 0, 0, 0, 0, 0, 0, 0, 0, 0, 0, 0, 0, 0, 0, 0]","[0, 0, 0, 0, 0, 0, 0, 0, 0, 0, 0, 0, 2, 4, 8, 10, 12, 13, 13, 13, 11, 11, 9, 8, 7, 7, 5, 4, 3, 2, 2, 2, 2, 2, 2, 2, 1, 0, -1, -1, -1, -1, -1, -1, -1, -1, -1, -1, -1, -1, -1, -1]"
"100","100","713.6","713.6","black","no","prac","1","legacy","legacy","y.png","w.png","w.png","w.png","2","legacy","0","relative","1","undefined","NA","yellow","NA","undefined","1","undefined","undefined","yellow","4","0","3","0","9","0","NA","9","9","9","9","9","0","9","9","9","9","0","4","NA","NA","9","0","0","0","0","0","0","0","9","11/03/20 13:55:58","Default description","yes","simont_HV.osexp","C:\Users\admin\Desktop\임채은\!MouseTracking_final","no","sans","no","18","no","black","no","yes","768","0","160","0","None","legacy","9","9","2","C:/Users/admin/Desktop/임채은/!MouseTracking_final/subject-21.csv","legacy","1","1","2","Kafkaesque Koffka","3.2.6","0","yellow","space","NA","None","yellow","start","space","NA","NA","NA","NA","609","109184","NA","250","609","334","16228","NA","NA","NA","NA","2","legacy","1024","2","48000","-16","experiment","21","odd","legacy","red","green","blue","yellow","2","18261","NA","NA","157837","2029","NA","156472","156976","157228","156137","NA","2032","157845","158845","156976","157228","NA","NA","NA","NA","156137","NA","NA","NA","NA","NA","NA","127445","156136","[156977.0, 156987.0, 156997.0, 157007.0, 157017.0, 157027.0, 157037.0, 157047.0, 157057.0, 157067.0, 157077.0, 157087.0, 157097.0, 157107.0, 157117.0, 157127.0, 157137.0, 157147.0, 157157.0, 157167.0, 157177.0, 157187.0, 157197.0, 157207.0, 157217.0, 157227.0]","[157228.0, 157238.0, 157248.0, 157258.0, 157268.0, 157278.0, 157288.0, 157298.0, 157308.0, 157318.0, 157328.0, 157338.0, 157348.0, 157358.0, 157368.0, 157378.0, 157388.0, 157398.0, 157408.0, 157418.0, 157428.0, 157438.0, 157448.0, 157458.0, 157468.0, 157478.0, 157488.0, 157498.0, 157508.0, 157518.0, 157528.0, 157538.0, 157548.0, 157558.0, 157568.0, 157578.0, 157588.0, 157598.0, 157608.0, 157618.0, 157628.0, 157638.0, 157648.0, 157658.0, 157668.0, 157678.0, 157688.0, 157698.0, 157708.0, 157718.0, 157728.0, 157738.0, 157748.0, 157758.0, 157768.0, 157778.0, 157788.0, 157798.0, 157808.0, 157818.0, 157828.0, 157837]","example_experiment","10","7136","10","yes","768","3","[0, 0, 0, 0, 0, 0, 0, 0, 0, 0, 0, 0, 0, 0, 0, 0, 0, -1, -1, -2, -4, -7, -10, -14, -17, -19]","[-19, -20, -20, -20, -20, -19, -16, -13, -10, -7, -5, -4, -3, -3, -3, -1, -1, -1, -1, 1, 4, 6, 7, 8, 8, 8, 8, 7, 6, 5, 5, 5, 5, 5, 5, 5, 5, 5, 6, 6, 5, 3, 1, 0, -1, -1, -1, 2, 4, 7, 8, 11, 12, 13, 14, 16, 17, 18, 18, 18, 19, 19]","[0, 0, 0, 0, 0, 0, 0, 0, 0, 0, 0, 0, 0, 0, 0, 0, 0, 0, 0, 0, 3, 6, 9, 11, 13, 15]","[15, 16, 17, 20, 23, 28, 36, 43, 50, 55, 58, 58, 58, 58, 58, 58, 58, 58, 58, 60, 65, 77, 92, 113, 140, 167, 191, 208, 221, 227, 230, 231, 232, 232, 232, 232, 232, 232, 233, 236, 239, 241, 243, 244, 246, 249, 255, 262, 271, 280, 288, 295, 299, 303, 305, 305, 305, 306, 306, 306, 307, 308]"
"100","100","697","697","black","no","prac","1","legacy","legacy","w.png","w.png","g.png","w.png","2","legacy","0","relative","1","undefined","NA","green","NA","undefined","1","undefined","undefined","green","2","0","3","0","10","0","NA","10","10","10","10","10","0","10","10","10","10","0","4","NA","NA","10","0","0","0","0","0","0","0","10","11/03/20 13:55:58","Default description","yes","simont_HV.osexp","C:\Users\admin\Desktop\임채은\!MouseTracking_final","no","sans","no","18","no","black","no","yes","768","30","None","30","None","legacy","10","10","2","C:/Users/admin/Desktop/임채은/!MouseTracking_final/subject-21.csv","legacy","1","1","1","Kafkaesque Koffka","3.2.6","0","green","space","NA","None","green","start","space","NA","NA","NA","NA","531","109184","NA","250","531","392","16228","NA","NA","NA","NA","2","legacy","1024","2","48000","-16","experiment","21","odd","legacy","red","green","blue","yellow","1","18261","NA","NA","160636","2029","NA","159349","159853","160105","158956","NA","2032","160655","161655","159853","160105","NA","NA","NA","NA","158955","NA","NA","NA","NA","NA","NA","127445","158954","[159854.0, 159864.0, 159874.0, 159884.0, 159894.0, 159904.0, 159914.0, 159924.0, 159934.0, 159944.0, 159954.0, 159964.0, 159974.0, 159984.0, 159994.0, 160004.0, 160014.0, 160024.0, 160034.0, 160044.0, 160054.0, 160064.0, 160074.0, 160084.0, 160094.0, 160104.0]","[160105.0, 160115.0, 160125.0, 160135.0, 160145.0, 160155.0, 160165.0, 160175.0, 160185.0, 160195.0, 160205.0, 160215.0, 160225.0, 160235.0, 160245.0, 160255.0, 160265.0, 160275.0, 160285.0, 160295.0, 160305.0, 160315.0, 160325.0, 160335.0, 160345.0, 160355.0, 160365.0, 160375.0, 160385.0, 160395.0, 160405.0, 160415.0, 160425.0, 160435.0, 160445.0, 160455.0, 160465.0, 160475.0, 160485.0, 160495.0, 160505.0, 160515.0, 160525.0, 160535.0, 160545.0, 160555.0, 160565.0, 160575.0, 160585.0, 160595.0, 160605.0, 160615.0, 160625.0, 160635.0, 160636]","example_experiment","11","7667","11","yes","768","1","[0, 0, 0, 0, 0, 0, 0, 0, 0, 0, 0, 0, 0, 0, 0, 0, 0, 0, 0, 0, 0, 0, 0, 0, 0, 0]","[0, 0, 0, 0, 0, 1, 3, 3, 3, 6, 12, 25, 45, 72, 105, 139, 179, 216, 255, 295, 330, 362, 387, 402, 413, 417, 417, 417, 417, 414, 410, 407, 405, 403, 399, 393, 387, 378, 368, 359, 348, 341, 336, 331, 329, 328, 327, 325, 324, 324, 324, 324, 324, 324, 324]","[0, 0, 0, 0, 0, 0, 0, 0, 0, 0, 0, 0, 0, 0, 0, 0, 0, 0, 0, 0, 0, 0, 0, 0, 0, 0]","[0, 0, 0, 0, 1, 3, 4, 4, 5, 5, 6, 8, 10, 11, 11, 12, 12, 12, 12, 13, 16, 20, 22, 23, 23, 23, 23, 23, 23, 23, 23, 23, 23, 23, 23, 23, 23, 23, 23, 23, 23, 23, 22, 21, 20, 20, 18, 18, 17, 15, 15, 15, 15, 15, 15]"
"100","100","700.833333333","700.833333333","black","no","prac","1","legacy","legacy","w.png","w.png","w.png","b.png","1","legacy","0","relative","1","undefined","NA","blue","NA","undefined","1","undefined","undefined","blue","3","0","3","0","11","0","NA","11","11","11","11","11","0","11","11","11","11","0","4","NA","NA","11","0","0","0","0","0","0","0","11","11/03/20 13:55:58","Default description","yes","simont_HV.osexp","C:\Users\admin\Desktop\임채은\!MouseTracking_final","no","sans","no","18","no","black","no","yes","768","30","None","30","None","legacy","11","11","1","C:/Users/admin/Desktop/임채은/!MouseTracking_final/subject-21.csv","legacy","1","1","1","Kafkaesque Koffka","3.2.6","0","blue","space","NA","None","blue","start","space","NA","NA","NA","NA","743","109184","NA","250","743","372","16228","NA","NA","NA","NA","2","legacy","1024","2","48000","-16","experiment","21","odd","legacy","red","green","blue","yellow","2","18261","NA","NA","163642","2029","NA","162143","162647","162899","161769","NA","2032","163645","164645","162647","162899","NA","NA","NA","NA","161769","NA","NA","NA","NA","NA","NA","127445","161768","[162648.0, 162658.0, 162668.0, 162678.0, 162688.0, 162698.0, 162708.0, 162718.0, 162728.0, 162738.0, 162748.0, 162758.0, 162768.0, 162778.0, 162788.0, 162798.0, 162808.0, 162818.0, 162828.0, 162838.0, 162848.0, 162858.0, 162868.0, 162878.0, 162888.0, 162898.0]","[162899.0, 162909.0, 162919.0, 162929.0, 162939.0, 162949.0, 162959.0, 162969.0, 162979.0, 162989.0, 162999.0, 163009.0, 163019.0, 163029.0, 163039.0, 163049.0, 163059.0, 163069.0, 163079.0, 163089.0, 163099.0, 163109.0, 163119.0, 163129.0, 163139.0, 163149.0, 163159.0, 163169.0, 163179.0, 163189.0, 163199.0, 163209.0, 163219.0, 163229.0, 163239.0, 163249.0, 163259.0, 163269.0, 163279.0, 163289.0, 163299.0, 163309.0, 163319.0, 163329.0, 163339.0, 163349.0, 163359.0, 163369.0, 163379.0, 163389.0, 163399.0, 163409.0, 163419.0, 163429.0, 163439.0, 163449.0, 163459.0, 163469.0, 163479.0, 163489.0, 163499.0, 163509.0, 163519.0, 163529.0, 163539.0, 163549.0, 163559.0, 163569.0, 163579.0, 163589.0, 163599.0, 163609.0, 163619.0, 163629.0, 163639.0, 163642]","example_experiment","12","8410","12","yes","768","1","[0, 0, 0, 0, 0, 0, 0, 0, 0, 0, 0, 0, 0, 0, 0, 0, 0, 0, 0, 0, 0, 0, 0, 0, 0, 0]","[0, 0, 0, 0, 0, 0, -1, -3, -3, -4, -4, -6, -8, -11, -13, -16, -17, -17, -17, -17, -17, -15, -9, 1, 13, 24, 35, 45, 54, 63, 68, 71, 72, 70, 67, 63, 57, 53, 49, 44, 38, 33, 29, 25, 23, 21, 19, 18, 17, 15, 15, 14, 13, 12, 10, 9, 8, 8, 7, 7, 7, 7, 7, 7, 7, 7, 7, 6, 5, 5, 5, 5, 5, 5, 5, 5]","[0, 0, 0, 0, 0, 0, 0, 0, 0, 0, 0, 0, 0, 0, 0, 0, 0, 0, 0, 0, 0, 0, 0, 0, 0, 0]","[0, 0, 0, 0, -1, -6, -15, -21, -27, -34, -42, -54, -70, -88, -97, -103, -104, -104, -104, -104, -104, -107, -115, -130, -151, -170, -190, -206, -223, -241, -254, -265, -273, -279, -282, -284, -284, -284, -283, -280, -279, -278, -278, -278, -278, -279, -280, -280, -281, -282, -282, -282, -283, -285, -286, -287, -288, -289, -290, -290, -290, -290, -290, -292, -294, -296, -298, -301, -303, -304, -305, -305, -306, -306, -306, -306]"
"100","100","669.769230769","669.769230769","black","no","prac","1","legacy","legacy","w.png","r.png","w.png","w.png","1","legacy","0","relative","1","undefined","NA","red","NA","undefined","1","undefined","undefined","red","1","0","3","0","12","0","NA","12","12","12","12","12","0","12","12","12","12","0","4","NA","NA","12","0","0","0","0","0","0","0","12","11/03/20 13:55:58","Default description","yes","simont_HV.osexp","C:\Users\admin\Desktop\임채은\!MouseTracking_final","no","sans","no","18","no","black","no","yes","768","0","190","0","None","legacy","12","12","1","C:/Users/admin/Desktop/임채은/!MouseTracking_final/subject-21.csv","legacy","1","1","1","Kafkaesque Koffka","3.2.6","0","red","space","NA","None","red","start","space","NA","NA","NA","NA","297","109184","NA","250","297","287","16228","NA","NA","NA","NA","2","legacy","1024","2","48000","-16","experiment","21","odd","legacy","red","green","blue","yellow","1","18261","NA","NA","166094","2029","NA","165041","165545","165797","164753","NA","2032","166125","167125","165545","165797","NA","NA","NA","NA","164753","NA","NA","NA","NA","NA","NA","127445","164752","[165546.0, 165556.0, 165566.0, 165576.0, 165586.0, 165596.0, 165606.0, 165616.0, 165626.0, 165636.0, 165646.0, 165656.0, 165666.0, 165676.0, 165686.0, 165696.0, 165706.0, 165716.0, 165726.0, 165736.0, 165746.0, 165756.0, 165766.0, 165776.0, 165786.0, 165796.0]","[165797.0, 165807.0, 165817.0, 165827.0, 165837.0, 165847.0, 165857.0, 165867.0, 165877.0, 165887.0, 165897.0, 165907.0, 165917.0, 165927.0, 165937.0, 165947.0, 165957.0, 165967.0, 165977.0, 165987.0, 165997.0, 166007.0, 166017.0, 166027.0, 166037.0, 166047.0, 166057.0, 166067.0, 166077.0, 166087.0, 166094]","example_experiment","13","8707","13","yes","768","1","[0, 0, 0, 0, 0, 0, 0, 0, 0, 0, 0, 0, 0, 0, 0, 0, 0, 0, 0, 0, -2, -4, -7, -10, -16, -28]","[-30, -51, -77, -110, -140, -165, -183, -194, -202, -207, -210, -214, -218, -224, -229, -237, -245, -256, -268, -284, -300, -313, -320, -325, -326, -326, -326, -326, -325, -325, -325]","[0, 0, 0, 0, 0, 0, 0, 0, 0, 0, 0, 0, 0, 0, 0, 0, 0, 0, 0, 0, 1, 1, 3, 4, 6, 10]","[11, 17, 24, 31, 39, 45, 48, 49, 48, 45, 41, 38, 35, 31, 27, 23, 17, 12, 6, -1, -7, -11, -13, -15, -15, -15, -15, -15, -14, -14, -14]"
"100","100","671.357142857","671.357142857","black","no","prac","2","legacy","legacy","w.png","w.png","w.png","y.png","2","legacy","0","relative","1","undefined","NA","yellow","NA","undefined","1","undefined","undefined","yellow","4","0","3","0","13","0","NA","13","13","13","13","13","0","13","13","13","13","0","4","NA","NA","13","0","0","0","0","0","0","0","13","11/03/20 13:55:58","Default description","yes","simont_HV.osexp","C:\Users\admin\Desktop\임채은\!MouseTracking_final","no","sans","no","18","no","black","no","yes","768","30","None","30","None","legacy","13","13","1","C:/Users/admin/Desktop/임채은/!MouseTracking_final/subject-21.csv","legacy","2","1","1","Kafkaesque Koffka","3.2.6","0","yellow","space","NA","None","yellow","start","space","NA","NA","NA","NA","692","109184","NA","250","692","252","16228","NA","NA","NA","NA","2","legacy","1024","2","48000","-16","experiment","21","odd","legacy","red","green","blue","yellow","2","18261","NA","NA","168937","2029","NA","167489","167993","168245","167236","NA","2032","168955","169955","167993","168245","NA","NA","NA","NA","167236","NA","NA","NA","NA","NA","NA","127445","167235","[167994.0, 168004.0, 168014.0, 168024.0, 168034.0, 168044.0, 168054.0, 168064.0, 168074.0, 168084.0, 168094.0, 168104.0, 168114.0, 168124.0, 168134.0, 168144.0, 168154.0, 168164.0, 168174.0, 168184.0, 168194.0, 168204.0, 168214.0, 168224.0, 168234.0, 168244.0]","[168245.0, 168255.0, 168265.0, 168275.0, 168285.0, 168295.0, 168305.0, 168315.0, 168325.0, 168335.0, 168345.0, 168355.0, 168365.0, 168375.0, 168385.0, 168395.0, 168405.0, 168415.0, 168425.0, 168435.0, 168445.0, 168455.0, 168465.0, 168475.0, 168485.0, 168495.0, 168505.0, 168515.0, 168525.0, 168535.0, 168545.0, 168555.0, 168565.0, 168575.0, 168585.0, 168595.0, 168605.0, 168615.0, 168625.0, 168635.0, 168645.0, 168655.0, 168665.0, 168675.0, 168685.0, 168695.0, 168705.0, 168715.0, 168725.0, 168735.0, 168745.0, 168755.0, 168765.0, 168775.0, 168785.0, 168795.0, 168805.0, 168815.0, 168825.0, 168835.0, 168845.0, 168855.0, 168865.0, 168875.0, 168885.0, 168895.0, 168905.0, 168915.0, 168925.0, 168935.0, 168937]","example_experiment","14","9399","14","yes","768","2","[0, 0, 0, 0, 0, 0, 0, 0, 0, 0, 0, 0, 0, 0, 0, 0, 0, 0, 0, 0, 0, 0, 0, 0, 0, 0]","[0, 0, 0, 0, -1, -4, -8, -15, -26, -38, -49, -54, -54, -54, -52, -49, -45, -41, -34, -27, -16, -7, 0, 4, 9, 15, 19, 21, 21, 20, 17, 12, 10, 7, 4, 3, 1, 1, 1, 1, 1, 1, 1, 1, 2, 4, 6, 7, 9, 9, 10, 10, 10, 10, 10, 10, 10, 10, 10, 10, 10, 10, 10, 10, 10, 10, 10, 10, 9, 9, 9]","[0, 0, 0, 0, 0, 0, 0, 0, 0, 0, 0, 0, 0, 0, 0, 0, 0, 0, 0, 0, 0, 0, 0, 0, 0, 0]","[0, 0, 0, 0, -4, -14, -36, -59, -95, -130, -156, -169, -172, -172, -172, -171, -166, -154, -133, -98, -51, 6, 62, 113, 157, 184, 200, 207, 213, 217, 220, 223, 224, 225, 226, 226, 227, 227, 227, 227, 227, 227, 227, 227, 227, 228, 230, 234, 237, 240, 244, 251, 261, 273, 284, 294, 302, 307, 309, 310, 310, 310, 310, 310, 310, 310, 310, 310, 311, 311, 311]"
"100","100","650.066666667","650.066666667","black","no","prac","3","legacy","legacy","w.png","r.png","w.png","w.png","1","legacy","0","relative","1","undefined","NA","red","NA","undefined","1","undefined","undefined","red","1","0","3","0","14","0","NA","14","14","14","14","14","0","14","14","14","14","0","4","NA","NA","14","0","0","0","0","0","0","0","14","11/03/20 13:55:58","Default description","yes","simont_HV.osexp","C:\Users\admin\Desktop\임채은\!MouseTracking_final","no","sans","no","18","no","black","no","yes","768","0","190","0","20","legacy","14","14","1","C:/Users/admin/Desktop/임채은/!MouseTracking_final/subject-21.csv","legacy","1","2","1","Kafkaesque Koffka","3.2.6","0","red","space","NA","None","red","start","space","NA","NA","NA","NA","352","109184","NA","250","352","288","16228","NA","NA","NA","NA","2","legacy","1024","2","48000","-16","experiment","21","odd","legacy","red","green","blue","yellow","1","18261","NA","NA","171456","2029","NA","170348","170852","171104","170058","NA","2032","171475","172475","170852","171104","NA","NA","NA","NA","170058","NA","NA","NA","NA","NA","NA","127445","170057","[170853.0, 170863.0, 170873.0, 170883.0, 170893.0, 170903.0, 170913.0, 170923.0, 170933.0, 170943.0, 170953.0, 170963.0, 170973.0, 170983.0, 170993.0, 171003.0, 171013.0, 171023.0, 171033.0, 171043.0, 171053.0, 171063.0, 171073.0, 171083.0, 171093.0, 171103.0]","[171104.0, 171114.0, 171124.0, 171134.0, 171144.0, 171154.0, 171164.0, 171174.0, 171184.0, 171194.0, 171204.0, 171214.0, 171224.0, 171234.0, 171244.0, 171254.0, 171264.0, 171274.0, 171284.0, 171294.0, 171304.0, 171314.0, 171324.0, 171334.0, 171344.0, 171354.0, 171364.0, 171374.0, 171384.0, 171394.0, 171404.0, 171414.0, 171424.0, 171434.0, 171444.0, 171454.0, 171456]","example_experiment","15","9751","15","yes","768","1","[0, 0, 0, 0, 0, 0, 0, 0, 0, 0, 0, 0, 0, 0, 0, 0, 0, 0, 0, 0, -1, -2, -5, -10, -20, -38]","[-43, -64, -89, -115, -144, -176, -206, -239, -265, -289, -310, -326, -335, -337, -337, -337, -337, -335, -332, -330, -328, -326, -325, -325, -323, -321, -318, -315, -313, -311, -310, -308, -308, -308, -307, -307, -307]","[0, 0, 0, 0, 0, 0, 0, 0, 0, 0, 0, 0, 0, 0, 0, 0, 0, 0, 0, 0, 0, 0, 1, 2, 5, 7]","[8, 11, 12, 12, 10, 5, -1, -8, -13, -17, -22, -24, -24, -24, -24, -24, -24, -23, -21, -20, -19, -19, -19, -19, -18, -18, -17, -16, -16, -14, -14, -13, -13, -12, -12, -12, -12]"
"100","100","679.75","679.75","black","no","prac","2","legacy","legacy","b.png","w.png","w.png","w.png","1","legacy","0","relative","1","undefined","NA","blue","NA","undefined","1","undefined","undefined","blue","3","0","3","0","15","0","NA","15","15","15","15","15","0","15","15","15","15","0","4","NA","NA","15","0","0","0","0","0","0","0","15","11/03/20 13:55:58","Default description","yes","simont_HV.osexp","C:\Users\admin\Desktop\임채은\!MouseTracking_final","no","sans","no","18","no","black","no","yes","768","70","None","70","None","legacy","15","15","2","C:/Users/admin/Desktop/임채은/!MouseTracking_final/subject-21.csv","legacy","2","1","2","Kafkaesque Koffka","3.2.6","0","blue","space","NA","None","blue","start","space","NA","NA","NA","NA","1125","109184","NA","250","1125","217","16228","NA","NA","NA","NA","2","legacy","1024","2","48000","-16","experiment","21","odd","legacy","red","green","blue","yellow","2","18261","NA","NA","174677","2029","NA","172796","173300","173552","172578","NA","2032","174695","175695","173300","173552","NA","NA","NA","NA","172578","NA","NA","NA","NA","NA","NA","127445","172576","[173301.0, 173311.0, 173321.0, 173331.0, 173341.0, 173351.0, 173361.0, 173371.0, 173381.0, 173391.0, 173401.0, 173411.0, 173421.0, 173431.0, 173441.0, 173451.0, 173461.0, 173471.0, 173481.0, 173491.0, 173501.0, 173511.0, 173521.0, 173531.0, 173541.0, 173551.0]","[173552.0, 173562.0, 173572.0, 173582.0, 173592.0, 173602.0, 173612.0, 173622.0, 173632.0, 173642.0, 173652.0, 173662.0, 173672.0, 173682.0, 173692.0, 173702.0, 173712.0, 173722.0, 173732.0, 173742.0, 173752.0, 173762.0, 173772.0, 173782.0, 173792.0, 173802.0, 173812.0, 173822.0, 173832.0, 173842.0, 173852.0, 173862.0, 173872.0, 173882.0, 173892.0, 173902.0, 173912.0, 173922.0, 173932.0, 173942.0, 173952.0, 173962.0, 173972.0, 173982.0, 173992.0, 174002.0, 174012.0, 174022.0, 174032.0, 174042.0, 174052.0, 174062.0, 174072.0, 174082.0, 174092.0, 174102.0, 174112.0, 174122.0, 174132.0, 174142.0, 174152.0, 174162.0, 174172.0, 174182.0, 174192.0, 174202.0, 174212.0, 174222.0, 174232.0, 174242.0, 174252.0, 174262.0, 174272.0, 174282.0, 174292.0, 174302.0, 174312.0, 174322.0, 174332.0, 174333, 174343.0, 174353.0, 174363.0, 174373.0, 174383.0, 174393.0, 174403.0, 174413.0, 174423.0, 174433.0, 174443.0, 174453.0, 174463.0, 174473.0, 174483.0, 174493.0, 174503.0, 174513.0, 174523.0, 174533.0, 174543.0, 174553.0, 174563.0, 174573.0, 174583.0, 174593.0, 174603.0, 174613.0, 174623.0, 174633.0, 174643.0, 174653.0, 174663.0, 174673.0, 174677]","example_experiment","16","10876","16","yes","768","4","[0, 0, 0, 0, 0, 0, 0, 0, 0, 0, 0, 0, 0, 0, 0, 0, 0, 0, 0, 0, 0, 0, 0, 0, 0, 0]","[0, 0, 0, 0, 0, 0, 0, 0, 0, 0, 0, 1, 1, 1, 2, 3, 6, 8, 10, 13, 16, 19, 24, 34, 57, 95, 147, 202, 256, 303, 337, 360, 374, 380, 381, 378, 371, 363, 353, 341, 326, 307, 280, 246, 210, 170, 133, 101, 73, 46, 26, 14, 11, 10, 10, 10, 10, 10, 10, 10, 10, 11, 11, 11, 12, 15, 18, 22, 26, 30, 34, 37, 38, 39, 39, 39, 38, 38, 38, 38, 38, 38, 38, 38, 38, 38, 38, 38, 38, 38, 38, 38, 38, 38, 38, 38, 38, 38, 38, 38, 38, 38, 37, 36, 36, 36, 35, 34, 31, 29, 27, 25, 24, 24, 24]","[0, 0, 0, 0, 0, 0, 0, 0, 0, 0, 0, 0, 0, 0, 0, 0, 0, 0, 0, 0, 0, 0, 0, 0, 0, 0]","[0, 0, 0, 0, 0, 0, 0, 0, 1, 3, 5, 6, 6, 7, 8, 10, 12, 14, 15, 15, 15, 16, 17, 19, 22, 26, 27, 27, 27, 22, 13, 3, -7, -17, -25, -33, -40, -47, -53, -59, -66, -76, -93, -113, -135, -159, -180, -196, -207, -217, -224, -228, -229, -230, -230, -230, -231, -231, -231, -231, -231, -231, -232, -232, -234, -237, -242, -250, -259, -268, -275, -283, -287, -291, -294, -297, -298, -298, -298, -298, -298, -298, -298, -298, -298, -298, -298, -298, -298, -298, -298, -298, -298, -298, -298, -298, -298, -298, -294, -286, -280, -274, -272, -271, -270, -270, -270, -273, -277, -280, -284, -287, -291, -293, -294]"
"100","100","661.529411765","661.529411765","black","no","prac","4","legacy","legacy","w.png","w.png","r.png","w.png","1","legacy","0","relative","1","undefined","NA","red","NA","undefined","1","undefined","undefined","red","1","0","3","0","16","0","NA","16","16","16","16","16","0","16","16","16","16","0","4","NA","NA","16","0","0","0","0","0","0","0","16","11/03/20 13:55:58","Default description","yes","simont_HV.osexp","C:\Users\admin\Desktop\임채은\!MouseTracking_final","no","sans","no","18","no","black","no","yes","768","10","None","10","20","legacy","16","16","2","C:/Users/admin/Desktop/임채은/!MouseTracking_final/subject-21.csv","legacy","2","2","1","Kafkaesque Koffka","3.2.6","0","red","space","NA","None","red","start","space","NA","NA","NA","NA","370","109184","NA","250","370","241","16228","NA","NA","NA","NA","2","legacy","1024","2","48000","-16","experiment","21","odd","legacy","red","green","blue","yellow","1","18261","NA","NA","177190","2029","NA","176064","176568","176820","175822","NA","2032","177195","178195","176568","176820","NA","NA","NA","NA","175822","NA","NA","NA","NA","NA","NA","127445","175821","[176569.0, 176579.0, 176589.0, 176599.0, 176609.0, 176619.0, 176629.0, 176639.0, 176649.0, 176659.0, 176669.0, 176679.0, 176689.0, 176699.0, 176709.0, 176719.0, 176729.0, 176739.0, 176749.0, 176759.0, 176769.0, 176779.0, 176789.0, 176799.0, 176809.0, 176819.0]","[176820.0, 176830.0, 176840.0, 176850.0, 176860.0, 176870.0, 176880.0, 176890.0, 176900.0, 176910.0, 176920.0, 176930.0, 176940.0, 176950.0, 176960.0, 176970.0, 176980.0, 176990.0, 177000.0, 177010.0, 177020.0, 177030.0, 177040.0, 177050.0, 177060.0, 177070.0, 177080.0, 177090.0, 177100.0, 177110.0, 177120.0, 177130.0, 177140.0, 177150.0, 177160.0, 177170.0, 177180.0, 177190.0, 177190]","example_experiment","17","11246","17","yes","768","2","[0, 0, 0, 0, 0, 0, 0, 0, 0, 0, 0, 0, 0, 0, 0, 0, 0, 0, 0, 0, 0, 0, 0, 0, 0, 0]","[0, 0, 2, 3, 6, 7, 9, 9, 9, 9, 7, 3, -4, -12, -22, -42, -68, -107, -154, -204, -249, -282, -304, -320, -327, -328, -328, -328, -328, -328, -328, -328, -328, -328, -328, -328, -328, -328, -328]","[0, 0, 0, 0, 0, 0, 0, 0, 0, 0, 0, 0, 0, 0, 0, 0, 0, 0, 0, 0, 0, 0, 0, 0, 0, 0]","[0, 0, 1, 3, 3, 5, 5, 5, 5, 5, 5, 5, 5, 5, 5, 6, 7, 8, 8, 8, 5, 1, -4, -9, -13, -13, -13, -13, -14, -14, -14, -14, -14, -14, -14, -14, -14, -14, -14]"
"100","100","655.388888889","655.388888889","black","no","prac","4","legacy","legacy","b.png","w.png","w.png","w.png","1","legacy","0","relative","1","undefined","NA","blue","NA","undefined","1","undefined","undefined","blue","3","0","3","0","17","0","NA","17","17","17","17","17","0","17","17","17","17","0","4","NA","NA","17","0","0","0","0","0","0","0","17","11/03/20 13:55:58","Default description","yes","simont_HV.osexp","C:\Users\admin\Desktop\임채은\!MouseTracking_final","no","sans","no","18","no","black","no","yes","768","0","110","0","None","legacy","17","17","2","C:/Users/admin/Desktop/임채은/!MouseTracking_final/subject-21.csv","legacy","2","2","2","Kafkaesque Koffka","3.2.6","0","blue","space","NA","None","blue","start","space","NA","NA","NA","NA","551","109184","NA","250","551","306","16228","NA","NA","NA","NA","2","legacy","1024","2","48000","-16","experiment","21","odd","legacy","red","green","blue","yellow","2","18261","NA","NA","179920","2029","NA","178613","179117","179369","178305","NA","2032","179925","180925","179117","179369","NA","NA","NA","NA","178305","NA","NA","NA","NA","NA","NA","127445","178304","[179118.0, 179128.0, 179138.0, 179148.0, 179158.0, 179168.0, 179178.0, 179188.0, 179198.0, 179208.0, 179218.0, 179228.0, 179238.0, 179248.0, 179258.0, 179268.0, 179278.0, 179288.0, 179298.0, 179308.0, 179318.0, 179328.0, 179338.0, 179348.0, 179358.0, 179368.0]","[179369.0, 179379.0, 179389.0, 179399.0, 179409.0, 179419.0, 179429.0, 179439.0, 179449.0, 179459.0, 179469.0, 179479.0, 179489.0, 179499.0, 179509.0, 179519.0, 179529.0, 179539.0, 179549.0, 179559.0, 179569.0, 179579.0, 179589.0, 179599.0, 179609.0, 179619.0, 179629.0, 179639.0, 179649.0, 179659.0, 179669.0, 179679.0, 179689.0, 179699.0, 179709.0, 179719.0, 179729.0, 179739.0, 179749.0, 179759.0, 179769.0, 179779.0, 179789.0, 179799.0, 179809.0, 179819.0, 179829.0, 179839.0, 179849.0, 179859.0, 179869.0, 179879.0, 179889.0, 179899.0, 179909.0, 179919.0, 179920]","example_experiment","18","11797","18","yes","768","4","[0, 0, 0, 0, 0, 0, 0, 0, 0, 0, 0, 0, -1, -1, -1, -1, -1, -1, -1, -1, -1, -1, -1, -1, -1, -2]","[-2, -3, -5, -7, -9, -10, -10, -10, -10, -7, -5, -4, -3, -2, -1, -1, -1, 0, 1, 3, 6, 11, 16, 20, 20, 16, 6, -7, -19, -28, -30, -30, -30, -28, -26, -25, -25, -25, -24, -24, -23, -21, -20, -20, -20, -20, -20, -20, -20, -19, -18, -17, -15, -13, -11, -11, -11]","[0, 0, 0, 0, 0, 0, 0, 0, 0, 0, 0, 0, 0, 0, 0, 0, 0, 0, 0, 0, 0, 0, 0, 0, 3, 8]","[9, 15, 23, 33, 46, 61, 79, 96, 115, 132, 147, 157, 163, 165, 166, 166, 166, 164, 157, 145, 123, 92, 53, -1, -56, -111, -173, -225, -269, -304, -328, -343, -352, -355, -356, -357, -357, -357, -357, -355, -353, -350, -348, -347, -347, -347, -346, -345, -342, -337, -330, -321, -311, -305, -303, -302, -302]"
"100","100","641.421052632","641.421052632","black","no","prac","4","legacy","legacy","w.png","g.png","w.png","w.png","2","legacy","0","relative","1","undefined","NA","green","NA","undefined","1","undefined","undefined","green","2","0","3","0","18","0","NA","18","18","18","18","18","0","18","18","18","18","0","4","NA","NA","18","0","0","0","0","0","0","0","18","11/03/20 13:55:58","Default description","yes","simont_HV.osexp","C:\Users\admin\Desktop\임채은\!MouseTracking_final","no","sans","no","18","no","black","no","yes","768","100","None","100","None","legacy","18","18","1","C:/Users/admin/Desktop/임채은/!MouseTracking_final/subject-21.csv","legacy","2","2","2","Kafkaesque Koffka","3.2.6","0","green","space","NA","None","green","start","space","NA","NA","NA","NA","390","109184","NA","250","390","182","16228","NA","NA","NA","NA","2","legacy","1024","2","48000","-16","experiment","21","odd","legacy","red","green","blue","yellow","1","18261","NA","NA","182367","2029","NA","181221","181725","181977","181037","NA","2032","182375","183375","181725","181977","NA","NA","NA","NA","181037","NA","NA","NA","NA","NA","NA","127445","181036","[181726.0, 181736.0, 181746.0, 181756.0, 181766.0, 181776.0, 181786.0, 181796.0, 181806.0, 181816.0, 181826.0, 181836.0, 181846.0, 181856.0, 181866.0, 181876.0, 181886.0, 181896.0, 181906.0, 181916.0, 181926.0, 181936.0, 181946.0, 181956.0, 181966.0, 181976.0]","[181977.0, 181987.0, 181997.0, 182007.0, 182017.0, 182027.0, 182037.0, 182047.0, 182057.0, 182067.0, 182077.0, 182087.0, 182097.0, 182107.0, 182117.0, 182127.0, 182137.0, 182147.0, 182157.0, 182167.0, 182177.0, 182187.0, 182197.0, 182207.0, 182217.0, 182227.0, 182237.0, 182247.0, 182257.0, 182267.0, 182277.0, 182287.0, 182297.0, 182307.0, 182317.0, 182327.0, 182337.0, 182347.0, 182357.0, 182367.0, 182367]","example_experiment","19","12187","19","yes","768","4","[0, 0, 0, 0, 0, 0, 0, 0, 0, 0, 0, 0, 0, 0, 0, 0, 0, 0, 0, 0, 0, 0, 0, 0, 0, 0]","[0, 0, 0, 0, 0, 0, 0, 0, 0, 0, 0, 3, 11, 28, 47, 72, 99, 131, 161, 192, 222, 247, 268, 280, 287, 290, 291, 292, 292, 294, 297, 303, 309, 315, 320, 325, 329, 330, 331, 331, 331]","[0, 0, 0, 0, 0, 0, 0, 0, 0, 0, 0, 0, 0, 0, 0, 0, 0, 0, 0, 0, 0, 0, 0, 0, 0, 0]","[0, 0, 0, 0, 0, 0, 0, 0, 0, 0, 0, 0, -1, -4, -4, -3, -1, 4, 8, 12, 16, 19, 22, 22, 22, 22, 22, 22, 22, 21, 19, 17, 14, 11, 9, 7, 6, 5, 4, 4, 4]"
"100","100","648.45","648.45","black","no","prac","3","legacy","legacy","y.png","w.png","w.png","w.png","2","legacy","0","relative","1","undefined","NA","yellow","NA","undefined","1","undefined","undefined","yellow","4","0","3","0","19","0","NA","19","19","19","19","19","0","19","19","19","19","0","4","NA","NA","19","0","0","0","0","0","0","0","19","11/03/20 13:55:58","Default description","yes","simont_HV.osexp","C:\Users\admin\Desktop\임채은\!MouseTracking_final","no","sans","no","18","no","black","no","yes","768","100","200","100","None","legacy","19","19","2","C:/Users/admin/Desktop/임채은/!MouseTracking_final/subject-21.csv","legacy","1","2","2","Kafkaesque Koffka","3.2.6","0","yellow","space","NA","None","yellow","start","space","NA","NA","NA","NA","782","109184","NA","250","782","224","16228","NA","NA","NA","NA","2","legacy","1024","2","48000","-16","experiment","21","odd","legacy","red","green","blue","yellow","2","18261","NA","NA","185252","2029","NA","183714","184218","184470","183488","NA","2032","185255","186255","184218","184470","NA","NA","NA","NA","183488","NA","NA","NA","NA","NA","NA","127445","183487","[184219.0, 184229.0, 184239.0, 184249.0, 184259.0, 184269.0, 184279.0, 184289.0, 184299.0, 184309.0, 184319.0, 184329.0, 184339.0, 184349.0, 184359.0, 184369.0, 184379.0, 184389.0, 184399.0, 184409.0, 184419.0, 184429.0, 184439.0, 184449.0, 184459.0, 184469.0]","[184470.0, 184480.0, 184490.0, 184500.0, 184510.0, 184520.0, 184530.0, 184540.0, 184550.0, 184560.0, 184570.0, 184580.0, 184590.0, 184600.0, 184610.0, 184620.0, 184630.0, 184640.0, 184650.0, 184660.0, 184670.0, 184680.0, 184690.0, 184700.0, 184710.0, 184720.0, 184730.0, 184740.0, 184750.0, 184760.0, 184770.0, 184780.0, 184790.0, 184800.0, 184810.0, 184820.0, 184830.0, 184840.0, 184850.0, 184860.0, 184870.0, 184880.0, 184890.0, 184900.0, 184910.0, 184920.0, 184930.0, 184940.0, 184950.0, 184954, 184964.0, 184974.0, 184984.0, 184994.0, 185004.0, 185014.0, 185024.0, 185034.0, 185044.0, 185054.0, 185064.0, 185074.0, 185084.0, 185094.0, 185104.0, 185114.0, 185124.0, 185134.0, 185144.0, 185154.0, 185164.0, 185174.0, 185184.0, 185194.0, 185204.0, 185214.0, 185224.0, 185234.0, 185244.0, 185252]","example_experiment","20","12969","20","yes","768","3","[0, 0, 0, 0, 0, 0, 0, 0, 0, 0, 0, 0, 0, 0, 0, 0, 0, 0, 0, 0, 0, -3, -6, -8, -10, -11]","[-11, -11, -11, -11, -11, -11, -11, -11, -11, -11, -11, -11, -11, -11, -16, -21, -23, -26, -29, -30, -31, -29, -25, -22, -19, -16, -13, -9, -5, -1, 4, 8, 12, 15, 16, 16, 16, 16, 15, 15, 15, 14, 11, 7, 4, 1, 0, 0, 0, -1, -1, -2, -2, -2, -2, -2, -2, -2, -2, -2, -2, -2, -2, -2, -2, -3, -4, -4, -5, -5, -5, -5, -3, -1, 0, 0, 0, -1, -2, -2]","[0, 0, 0, 0, 0, 0, 0, 0, 0, 0, 0, 0, 0, 0, 0, 0, 0, 0, 0, 0, 0, 0, 1, 1, 2, 2]","[2, 2, 2, 2, 2, 2, 2, 2, 2, 2, 2, 7, 19, 36, 59, 81, 99, 112, 122, 132, 146, 163, 191, 217, 235, 250, 261, 268, 271, 272, 273, 274, 275, 276, 276, 276, 276, 276, 276, 276, 276, 276, 276, 276, 276, 276, 276, 276, 276, 276, 277, 278, 279, 279, 279, 279, 279, 279, 279, 279, 279, 279, 279, 279, 279, 280, 281, 281, 281, 281, 284, 287, 290, 293, 296, 298, 300, 302, 304, 305]"
"100","100","637.428571429","637.428571429","black","no","prac","2","legacy","legacy","w.png","w.png","r.png","w.png","1","legacy","0","relative","1","undefined","NA","red","NA","undefined","1","undefined","undefined","red","1","0","3","0","20","0","NA","20","20","20","20","20","0","20","20","20","20","0","4","NA","NA","20","0","0","0","0","0","0","0","20","11/03/20 13:55:58","Default description","yes","simont_HV.osexp","C:\Users\admin\Desktop\임채은\!MouseTracking_final","no","sans","no","18","no","black","no","yes","768","30","None","30","20","legacy","20","20","2","C:/Users/admin/Desktop/임채은/!MouseTracking_final/subject-21.csv","legacy","2","1","2","Kafkaesque Koffka","3.2.6","0","red","space","NA","None","red","start","space","NA","NA","NA","NA","417","109184","NA","250","417","404","16228","NA","NA","NA","NA","2","legacy","1024","2","48000","-16","experiment","21","odd","legacy","red","green","blue","yellow","1","18261","NA","NA","187948","2029","NA","186775","187279","187531","186370","NA","2032","187965","188965","187279","187531","NA","NA","NA","NA","186370","NA","NA","NA","NA","NA","NA","127445","186369","[187280.0, 187290.0, 187300.0, 187310.0, 187320.0, 187330.0, 187340.0, 187350.0, 187360.0, 187370.0, 187380.0, 187390.0, 187400.0, 187410.0, 187420.0, 187430.0, 187440.0, 187450.0, 187460.0, 187470.0, 187480.0, 187490.0, 187500.0, 187510.0, 187520.0, 187530.0]","[187531.0, 187541.0, 187551.0, 187561.0, 187571.0, 187581.0, 187591.0, 187601.0, 187611.0, 187621.0, 187631.0, 187641.0, 187651.0, 187661.0, 187671.0, 187681.0, 187691.0, 187701.0, 187711.0, 187721.0, 187731.0, 187741.0, 187751.0, 187761.0, 187771.0, 187781.0, 187791.0, 187801.0, 187811.0, 187821.0, 187831.0, 187841.0, 187851.0, 187861.0, 187871.0, 187881.0, 187891.0, 187901.0, 187911.0, 187921.0, 187931.0, 187941.0, 187948]","example_experiment","21","13386","21","yes","768","4","[0, 0, 0, 0, 0, 0, 0, 0, 0, 0, 0, 0, 0, 0, 0, 0, 0, 0, 0, 0, 0, 0, 0, 0, 0, 0]","[0, 0, 0, 0, -8, -24, -54, -95, -137, -180, -226, -269, -307, -338, -361, -384, -384, -384, -384, -384, -384, -384, -384, -384, -384, -384, -384, -384, -381, -373, -362, -352, -341, -331, -323, -315, -307, -301, -295, -292, -290, -289, -289]","[0, 0, 0, 0, 0, 0, 0, 0, 0, 0, 0, 0, 0, 0, 0, 0, 0, 0, 0, 0, 0, 0, 0, 0, 0, 0]","[0, 0, 0, 0, 1, 8, 21, 38, 54, 65, 71, 71, 65, 56, 47, 37, 30, 27, 26, 26, 26, 26, 25, 24, 23, 23, 22, 19, 17, 14, 12, 10, 7, 5, 3, 1, -1, -4, -7, -8, -9, -9, -9]"
"100","100","647.818181818","647.818181818","black","no","prac","4","legacy","legacy","w.png","w.png","w.png","y.png","2","legacy","0","relative","1","undefined","NA","yellow","NA","undefined","1","undefined","undefined","yellow","4","0","3","0","21","0","NA","21","21","21","21","21","0","21","21","21","21","0","4","NA","NA","21","0","0","0","0","0","0","0","21","11/03/20 13:55:58","Default description","yes","simont_HV.osexp","C:\Users\admin\Desktop\임채은\!MouseTracking_final","no","sans","no","18","no","black","no","yes","768","220","None","220","None","legacy","21","21","1","C:/Users/admin/Desktop/임채은/!MouseTracking_final/subject-21.csv","legacy","2","2","1","Kafkaesque Koffka","3.2.6","0","yellow","space","NA","None","yellow","start","space","NA","NA","NA","NA","866","109184","NA","250","866","254","16228","NA","NA","NA","NA","2","legacy","1024","2","48000","-16","experiment","21","odd","legacy","red","green","blue","yellow","2","18261","NA","NA","190958","2029","NA","189336","189840","190092","189081","NA","2032","190975","191975","189840","190092","NA","NA","NA","NA","189081","NA","NA","NA","NA","NA","NA","127445","189079","[189841.0, 189851.0, 189861.0, 189871.0, 189881.0, 189891.0, 189901.0, 189911.0, 189921.0, 189931.0, 189941.0, 189951.0, 189961.0, 189971.0, 189981.0, 189991.0, 190001.0, 190011.0, 190021.0, 190031.0, 190041.0, 190051.0, 190061.0, 190071.0, 190081.0, 190091.0]","[190092.0, 190102.0, 190112.0, 190122.0, 190132.0, 190142.0, 190152.0, 190162.0, 190172.0, 190182.0, 190192.0, 190202.0, 190212.0, 190222.0, 190232.0, 190242.0, 190252.0, 190262.0, 190272.0, 190282.0, 190292.0, 190302.0, 190312.0, 190322.0, 190332.0, 190342.0, 190352.0, 190362.0, 190372.0, 190382.0, 190392.0, 190402.0, 190412.0, 190422.0, 190432.0, 190442.0, 190452.0, 190462.0, 190472.0, 190482.0, 190492.0, 190502.0, 190512.0, 190522.0, 190532.0, 190542.0, 190552.0, 190562.0, 190572.0, 190582.0, 190592.0, 190602.0, 190612.0, 190622.0, 190632.0, 190642.0, 190652.0, 190662.0, 190672.0, 190682.0, 190692.0, 190702.0, 190712.0, 190722.0, 190732.0, 190742.0, 190752.0, 190762.0, 190772.0, 190782.0, 190792.0, 190802.0, 190812.0, 190822.0, 190832.0, 190842.0, 190852.0, 190862.0, 190872.0, 190882.0, 190892.0, 190902.0, 190912.0, 190922.0, 190932.0, 190942.0, 190952.0, 190958]","example_experiment","22","14252","22","yes","768","2","[0, 0, 0, 0, 0, 0, 0, 0, 0, 0, 0, 0, 0, 0, 0, 0, 0, 0, 0, 0, 0, 0, 0, 0, 0, 0]","[0, 0, 0, 0, 0, 0, 0, 0, 0, 0, 0, 0, 0, 0, 0, 0, 0, 0, 0, 0, 0, 0, 0, 0, 0, 1, 3, 5, 8, 11, 14, 15, 16, 16, 17, 17, 17, 17, 17, 18, 21, 24, 27, 29, 34, 42, 48, 51, 51, 49, 46, 42, 40, 38, 36, 35, 32, 28, 25, 22, 20, 18, 15, 13, 10, 7, 6, 5, 4, 4, 2, 0, -3, -6, -7, -8, -9, -12, -14, -16, -16, -16, -16, -16, -15, -15, -15, -15]","[0, 0, 0, 0, 0, 0, 0, 0, 0, 0, 0, 0, 0, 0, 0, 0, 0, 0, 0, 0, 0, 0, 0, 0, 0, 0]","[0, 0, 0, 0, 0, 0, 0, 0, 0, 0, 0, 0, 0, 0, 0, 0, 0, 0, 0, 0, 0, 0, 0, -1, -6, -17, -30, -42, -49, -55, -58, -59, -59, -60, -60, -60, -53, -38, -14, 18, 53, 86, 115, 136, 157, 179, 201, 219, 234, 243, 249, 252, 255, 256, 256, 256, 254, 250, 246, 244, 241, 240, 240, 240, 241, 245, 251, 257, 262, 266, 271, 277, 281, 288, 296, 303, 310, 318, 326, 331, 334, 336, 336, 336, 336, 336, 336, 336]"
"100","100","639.913043478","639.913043478","black","no","prac","4","legacy","legacy","w.png","g.png","w.png","w.png","2","legacy","0","relative","1","undefined","NA","green","NA","undefined","1","undefined","undefined","green","2","0","3","0","22","0","NA","22","22","22","22","22","0","22","22","22","22","0","4","NA","NA","22","0","0","0","0","0","0","0","22","11/03/20 13:55:58","Default description","yes","simont_HV.osexp","C:\Users\admin\Desktop\임채은\!MouseTracking_final","no","sans","no","18","no","black","no","yes","768","50","None","50","None","legacy","22","22","1","C:/Users/admin/Desktop/임채은/!MouseTracking_final/subject-21.csv","legacy","2","2","2","Kafkaesque Koffka","3.2.6","0","green","space","NA","None","green","start","space","NA","NA","NA","NA","466","109184","NA","250","466","327","16228","NA","NA","NA","NA","2","legacy","1024","2","48000","-16","experiment","21","odd","legacy","red","green","blue","yellow","1","18261","NA","NA","193646","2029","NA","192425","192929","193180","192097","NA","2032","193665","194665","192929","193180","NA","NA","NA","NA","192097","NA","NA","NA","NA","NA","NA","127445","192096","[192929.0, 192940.0, 192950.0, 192960.0, 192970.0, 192980.0, 192990.0, 193000.0, 193010.0, 193020.0, 193030.0, 193040.0, 193050.0, 193060.0, 193070.0, 193080.0, 193090.0, 193100.0, 193110.0, 193120.0, 193130.0, 193140.0, 193150.0, 193160.0, 193170.0, 193179.0]","[193180.0, 193190.0, 193200.0, 193210.0, 193220.0, 193230.0, 193240.0, 193250.0, 193260.0, 193270.0, 193280.0, 193290.0, 193300.0, 193310.0, 193320.0, 193330.0, 193340.0, 193350.0, 193360.0, 193370.0, 193380.0, 193390.0, 193400.0, 193410.0, 193420.0, 193430.0, 193440.0, 193450.0, 193460.0, 193470.0, 193480.0, 193490.0, 193500.0, 193510.0, 193520.0, 193530.0, 193540.0, 193550.0, 193560.0, 193570.0, 193580.0, 193590.0, 193600.0, 193610.0, 193620.0, 193630.0, 193640.0, 193646]","example_experiment","23","14718","23","yes","768","4","[0, 0, 0, 0, 0, 0, 0, 0, 0, 0, 0, 0, 0, 0, 0, 0, 0, 0, 0, 0, 0, 0, 0, 0, 0, 0]","[0, 0, 0, 0, 0, 0, -1, -6, -10, -19, -29, -44, -63, -83, -100, -108, -112, -112, -112, -106, -90, -64, -24, 24, 76, 131, 185, 233, 270, 300, 317, 323, 323, 321, 318, 313, 309, 305, 302, 302, 301, 300, 300, 300, 300, 300, 300, 300]","[0, 0, 0, 0, 0, 0, 0, 0, 0, 0, 0, 0, 0, 0, 0, 0, 0, 0, 0, 0, 0, 0, 0, 0, 0, 0]","[0, 0, 0, 0, 0, 0, 0, 0, 3, 6, 9, 11, 13, 15, 15, 17, 17, 18, 18, 18, 18, 18, 18, 18, 19, 20, 20, 20, 20, 20, 21, 21, 21, 21, 21, 20, 20, 18, 18, 17, 17, 17, 17, 17, 17, 17, 17, 16]"
"100","100","630.125","630.125","black","no","prac","3","legacy","legacy","w.png","w.png","w.png","b.png","1","legacy","0","relative","1","undefined","NA","blue","NA","undefined","1","undefined","undefined","blue","3","0","3","0","23","0","NA","23","23","23","23","23","0","23","23","23","23","0","4","NA","NA","23","0","0","0","0","0","0","0","23","11/03/20 13:55:58","Default description","yes","simont_HV.osexp","C:\Users\admin\Desktop\임채은\!MouseTracking_final","no","sans","no","18","no","black","no","yes","768","20","None","20","70","legacy","23","23","1","C:/Users/admin/Desktop/임채은/!MouseTracking_final/subject-21.csv","legacy","1","2","2","Kafkaesque Koffka","3.2.6","0","blue","space","NA","None","blue","start","space","NA","NA","NA","NA","405","109184","NA","250","405","257","16228","NA","NA","NA","NA","2","legacy","1024","2","48000","-16","experiment","21","odd","legacy","red","green","blue","yellow","2","18261","NA","NA","196194","2029","NA","195033","195537","195789","194775","NA","2032","196205","197205","195537","195789","NA","NA","NA","NA","194775","NA","NA","NA","NA","NA","NA","127445","194774","[195538.0, 195548.0, 195558.0, 195568.0, 195578.0, 195588.0, 195598.0, 195608.0, 195618.0, 195628.0, 195638.0, 195648.0, 195658.0, 195668.0, 195678.0, 195688.0, 195698.0, 195708.0, 195718.0, 195728.0, 195738.0, 195748.0, 195758.0, 195768.0, 195778.0, 195788.0]","[195789.0, 195799.0, 195809.0, 195819.0, 195829.0, 195839.0, 195849.0, 195859.0, 195869.0, 195879.0, 195889.0, 195899.0, 195909.0, 195919.0, 195929.0, 195939.0, 195949.0, 195959.0, 195969.0, 195979.0, 195989.0, 195999.0, 196009.0, 196019.0, 196029.0, 196039.0, 196049.0, 196059.0, 196069.0, 196079.0, 196089.0, 196099.0, 196109.0, 196119.0, 196129.0, 196139.0, 196149.0, 196159.0, 196169.0, 196179.0, 196189.0, 196194]","example_experiment","24","15123","24","yes","768","3","[0, 0, 0, 0, 0, 0, 0, 0, 0, 0, 0, 0, 0, 0, 0, 0, 0, 0, 0, 0, 0, 0, 0, 0, 0, 0]","[0, 0, 0, 0, 0, 0, -1, -1, -1, -1, -2, -4, -6, -8, -9, -10, -10, -10, -10, -10, -10, -10, -9, -7, -4, -3, -3, -3, -3, -3, -3, -3, -3, -3, -3, -3, -3, -3, -3, -3, -3, -3]","[0, 0, 0, 0, 0, 0, 0, 0, 0, 0, 0, 0, 0, 0, 0, 0, 0, 0, 0, 0, 0, 0, 0, 0, 0, 0]","[0, 0, 0, -1, -8, -20, -34, -49, -63, -78, -97, -114, -134, -153, -168, -182, -189, -194, -198, -200, -202, -204, -208, -214, -225, -236, -247, -260, -269, -277, -284, -289, -293, -296, -297, -299, -301, -302, -303, -303, -303, -303]"
"100","100","611.8","611.8","black","no","prac","1","legacy","legacy","w.png","r.png","w.png","w.png","1","legacy","0","relative","1","undefined","NA","red","NA","undefined","1","undefined","undefined","red","1","0","3","0","24","0","NA","24","24","24","24","24","0","24","24","24","24","0","4","NA","NA","24","0","0","0","0","0","0","0","24","11/03/20 13:55:58","Default description","yes","simont_HV.osexp","C:\Users\admin\Desktop\임채은\!MouseTracking_final","no","sans","no","18","no","black","no","yes","768","0","0","0","None","legacy","24","24","1","C:/Users/admin/Desktop/임채은/!MouseTracking_final/subject-21.csv","legacy","1","1","2","Kafkaesque Koffka","3.2.6","0","red","space","NA","None","red","start","space","NA","NA","NA","NA","172","109184","NA","250","172","489","16228","NA","NA","NA","NA","2","legacy","1024","2","48000","-16","experiment","21","odd","legacy","red","green","blue","yellow","1","18261","NA","NA","198738","2029","NA","197810","198314","198566","197320","NA","2032","198765","199765","198314","198566","NA","NA","NA","NA","197320","NA","NA","NA","NA","NA","NA","127445","197319","[198315.0, 198325.0, 198335.0, 198345.0, 198355.0, 198365.0, 198375.0, 198385.0, 198395.0, 198405.0, 198415.0, 198425.0, 198435.0, 198445.0, 198455.0, 198465.0, 198475.0, 198485.0, 198495.0, 198505.0, 198515.0, 198525.0, 198535.0, 198545.0, 198555.0, 198565.0]","[198566.0, 198576.0, 198586.0, 198596.0, 198606.0, 198616.0, 198626.0, 198636.0, 198646.0, 198656.0, 198666.0, 198676.0, 198686.0, 198696.0, 198706.0, 198716.0, 198726.0, 198736.0, 198738]","example_experiment","25","15295","25","yes","768","3","[0, 0, -2, -7, -16, -28, -42, -57, -70, -81, -90, -99, -107, -118, -128, -138, -148, -156, -163, -167, -170, -173, -177, -183, -192, -202]","[-205, -217, -231, -249, -271, -293, -314, -330, -341, -348, -350, -350, -350, -350, -350, -350, -350, -350, -350]","[0, 1, 2, 5, 8, 12, 15, 18, 20, 21, 21, 21, 21, 21, 21, 21, 21, 21, 21, 21, 21, 21, 21, 21, 21, 22]","[22, 22, 22, 21, 18, 15, 12, 9, 7, 5, 4, 4, 4, 4, 4, 4, 4, 4, 4]"
"100","100","613.884615385","613.884615385","black","no","prac","2","legacy","legacy","w.png","w.png","w.png","y.png","2","legacy","0","relative","1","undefined","NA","yellow","NA","undefined","1","undefined","undefined","yellow","4","0","3","0","25","0","NA","25","25","25","25","25","0","25","25","25","25","0","4","NA","NA","25","0","0","0","0","0","0","0","25","11/03/20 13:55:58","Default description","yes","simont_HV.osexp","C:\Users\admin\Desktop\임채은\!MouseTracking_final","no","sans","no","18","no","black","no","yes","768","20","None","20","None","legacy","25","25","1","C:/Users/admin/Desktop/임채은/!MouseTracking_final/subject-21.csv","legacy","2","1","1","Kafkaesque Koffka","3.2.6","0","yellow","space","NA","None","yellow","start","space","NA","NA","NA","NA","666","109184","NA","250","666","284","16228","NA","NA","NA","NA","2","legacy","1024","2","48000","-16","experiment","21","odd","legacy","red","green","blue","yellow","2","18261","NA","NA","201588","2029","NA","200166","200670","200922","199880","NA","2032","201595","202595","200670","200922","NA","NA","NA","NA","199880","NA","NA","NA","NA","NA","NA","127445","199879","[200671.0, 200681.0, 200691.0, 200701.0, 200711.0, 200721.0, 200731.0, 200741.0, 200751.0, 200761.0, 200771.0, 200781.0, 200791.0, 200801.0, 200811.0, 200821.0, 200831.0, 200841.0, 200851.0, 200861.0, 200871.0, 200881.0, 200891.0, 200901.0, 200911.0, 200921.0]","[200922.0, 200932.0, 200942.0, 200952.0, 200962.0, 200972.0, 200982.0, 200992.0, 201002.0, 201012.0, 201022.0, 201032.0, 201042.0, 201052.0, 201062.0, 201072.0, 201082.0, 201092.0, 201102.0, 201112.0, 201122.0, 201132.0, 201142.0, 201152.0, 201162.0, 201172.0, 201182.0, 201192.0, 201202.0, 201212.0, 201222.0, 201232.0, 201242.0, 201252.0, 201262.0, 201272.0, 201282.0, 201292.0, 201302.0, 201312.0, 201322.0, 201332.0, 201342.0, 201352.0, 201362.0, 201372.0, 201382.0, 201392.0, 201402.0, 201412.0, 201422.0, 201432.0, 201442.0, 201452.0, 201462.0, 201472.0, 201482.0, 201492.0, 201502.0, 201512.0, 201522.0, 201532.0, 201542.0, 201552.0, 201562.0, 201572.0, 201582.0, 201588]","example_experiment","26","15961","26","yes","768","2","[0, 0, 0, 0, 0, 0, 0, 0, 0, 0, 0, 0, 0, 0, 0, 0, 0, 0, 0, 0, 0, 0, 0, 0, 0, 0]","[0, 0, 0, 0, 0, 0, 0, -1, -2, -2, -2, -2, -2, -2, -1, 4, 13, 30, 52, 75, 101, 125, 149, 172, 191, 205, 212, 215, 215, 212, 205, 193, 181, 165, 149, 131, 112, 96, 81, 68, 59, 53, 47, 45, 43, 43, 43, 43, 44, 44, 44, 42, 38, 33, 29, 26, 25, 24, 22, 21, 16, 11, 4, -3, -10, -15, -19, -20]","[0, 0, 0, 0, 0, 0, 0, 0, 0, 0, 0, 0, 0, 0, 0, 0, 0, 0, 0, 0, 0, 0, 0, 0, 0, 0]","[0, 0, 0, -1, -5, -8, -11, -13, -14, -14, -14, -14, -14, -14, -12, -10, -7, -4, -1, 2, 5, 8, 10, 12, 14, 18, 22, 30, 44, 64, 90, 121, 149, 178, 199, 219, 237, 250, 260, 268, 272, 274, 274, 274, 274, 273, 271, 269, 266, 264, 263, 263, 263, 266, 270, 275, 277, 280, 284, 290, 298, 306, 316, 324, 331, 334, 335, 335]"
"100","100","608.037037037","608.037037037","black","no","prac","3","legacy","legacy","w.png","w.png","g.png","w.png","2","legacy","0","relative","1","undefined","NA","green","NA","undefined","1","undefined","undefined","green","2","0","3","0","26","0","NA","26","26","26","26","26","0","26","26","26","26","0","4","NA","NA","26","0","0","0","0","0","0","0","26","11/03/20 13:55:58","Default description","yes","simont_HV.osexp","C:\Users\admin\Desktop\임채은\!MouseTracking_final","no","sans","no","18","no","black","no","yes","768","170","None","170","None","legacy","26","26","2","C:/Users/admin/Desktop/임채은/!MouseTracking_final/subject-21.csv","legacy","1","2","1","Kafkaesque Koffka","3.2.6","0","green","space","NA","None","green","start","space","NA","NA","NA","NA","456","109184","NA","250","456","270","16228","NA","NA","NA","NA","2","legacy","1024","2","48000","-16","experiment","21","odd","legacy","red","green","blue","yellow","1","18261","NA","NA","204201","2029","NA","202989","203493","203745","202718","NA","2032","204205","205205","203493","203745","NA","NA","NA","NA","202718","NA","NA","NA","NA","NA","NA","127445","202716","[203494.0, 203504.0, 203514.0, 203524.0, 203534.0, 203544.0, 203554.0, 203564.0, 203574.0, 203584.0, 203594.0, 203604.0, 203614.0, 203624.0, 203634.0, 203644.0, 203654.0, 203664.0, 203674.0, 203684.0, 203694.0, 203704.0, 203714.0, 203724.0, 203734.0, 203744.0]","[203745.0, 203755.0, 203765.0, 203775.0, 203785.0, 203795.0, 203805.0, 203815.0, 203825.0, 203835.0, 203845.0, 203855.0, 203865.0, 203875.0, 203885.0, 203895.0, 203905.0, 203915.0, 203925.0, 203935.0, 203945.0, 203955.0, 203965.0, 203975.0, 203985.0, 203995.0, 204005.0, 204015.0, 204025.0, 204035.0, 204045.0, 204055.0, 204065.0, 204075.0, 204085.0, 204095.0, 204105.0, 204115.0, 204125.0, 204135.0, 204145.0, 204155.0, 204165.0, 204175.0, 204185.0, 204195.0, 204201]","example_experiment","27","16417","27","yes","768","1","[0, 0, 0, 0, 0, 0, 0, 0, 0, 0, 0, 0, 0, 0, 0, 0, 0, 0, 0, 0, 0, 0, 0, 0, 0, 0]","[0, 0, 0, 0, 0, 0, 0, 0, 0, 0, 0, 0, 0, 0, 0, 0, 0, 0, 1, 7, 15, 28, 42, 60, 80, 105, 136, 170, 205, 239, 268, 293, 312, 325, 333, 336, 337, 337, 337, 337, 338, 338, 338, 338, 338, 338, 338]","[0, 0, 0, 0, 0, 0, 0, 0, 0, 0, 0, 0, 0, 0, 0, 0, 0, 0, 0, 0, 0, 0, 0, 0, 0, 0]","[0, 0, 0, 0, 0, 0, 0, 0, 0, 0, 0, 0, 0, 0, 0, 0, 0, 0, 0, 2, 3, 3, 3, 3, 3, 3, 3, 3, 5, 9, 11, 14, 16, 18, 19, 19, 19, 19, 19, 18, 17, 16, 15, 15, 15, 15, 15]"
"100","100","606.178571429","606.178571429","black","no","prac","2","legacy","legacy","b.png","w.png","w.png","w.png","1","legacy","0","relative","1","undefined","NA","blue","NA","undefined","1","undefined","undefined","blue","3","0","3","0","27","0","NA","27","27","27","27","27","0","27","27","27","27","0","4","NA","NA","27","0","0","0","0","0","0","0","27","11/03/20 13:55:58","Default description","yes","simont_HV.osexp","C:\Users\admin\Desktop\임채은\!MouseTracking_final","no","sans","no","18","no","black","no","yes","768","140","None","140","None","legacy","27","27","2","C:/Users/admin/Desktop/임채은/!MouseTracking_final/subject-21.csv","legacy","2","1","2","Kafkaesque Koffka","3.2.6","0","blue","space","NA","None","blue","start","space","NA","NA","NA","NA","556","109184","NA","250","556","262","16228","NA","NA","NA","NA","2","legacy","1024","2","48000","-16","experiment","21","odd","legacy","red","green","blue","yellow","2","18261","NA","NA","206884","2029","NA","205572","206076","206328","205309","NA","2032","206905","207905","206076","206328","NA","NA","NA","NA","205309","NA","NA","NA","NA","NA","NA","127445","205308","[206077.0, 206087.0, 206097.0, 206107.0, 206117.0, 206127.0, 206137.0, 206147.0, 206157.0, 206167.0, 206177.0, 206187.0, 206197.0, 206207.0, 206217.0, 206227.0, 206237.0, 206247.0, 206257.0, 206267.0, 206277.0, 206287.0, 206297.0, 206307.0, 206317.0, 206327.0]","[206328.0, 206338.0, 206348.0, 206358.0, 206368.0, 206378.0, 206388.0, 206398.0, 206408.0, 206418.0, 206428.0, 206438.0, 206448.0, 206458.0, 206468.0, 206478.0, 206488.0, 206498.0, 206508.0, 206518.0, 206528.0, 206538.0, 206548.0, 206558.0, 206568.0, 206578.0, 206588.0, 206598.0, 206608.0, 206618.0, 206628.0, 206638.0, 206648.0, 206658.0, 206668.0, 206678.0, 206688.0, 206698.0, 206708.0, 206718.0, 206728.0, 206738.0, 206748.0, 206758.0, 206768.0, 206778.0, 206788.0, 206798.0, 206808.0, 206818.0, 206828.0, 206838.0, 206848.0, 206858.0, 206868.0, 206878.0, 206884]","example_experiment","28","16973","28","yes","768","4","[0, 0, 0, 0, 0, 0, 0, 0, 0, 0, 0, 0, 0, 0, 0, 0, 0, 0, 0, 0, 0, 0, 0, 0, 0, 0]","[0, 0, 0, 0, 0, 0, 0, 0, 0, 0, 0, 0, 0, 0, 0, -1, -2, -3, -4, -5, -5, -5, -5, -5, -5, -4, 1, 4, 6, 6, 6, 6, 6, 6, 6, 6, 6, 6, 7, 9, 12, 14, 15, 16, 16, 16, 17, 17, 17, 17, 17, 17, 17, 15, 12, 9, 8]","[0, 0, 0, 0, 0, 0, 0, 0, 0, 0, 0, 0, 0, 0, 0, 0, 0, 0, 0, 0, 0, 0, 0, 0, 0, 0]","[0, 0, 0, 0, 0, 0, 0, 0, 0, 0, 0, 0, 0, 0, 0, 6, 14, 24, 32, 39, 44, 46, 46, 46, 46, 42, 27, 5, -22, -50, -72, -94, -114, -134, -156, -180, -203, -226, -244, -258, -266, -271, -275, -277, -278, -279, -280, -281, -281, -282, -283, -284, -288, -292, -296, -300, -303]"
"100","100","599.103448276","599.103448276","black","no","prac","4","legacy","legacy","b.png","w.png","w.png","w.png","1","legacy","0","relative","1","undefined","NA","blue","NA","undefined","1","undefined","undefined","blue","3","0","3","0","28","0","NA","28","28","28","28","28","0","28","28","28","28","0","4","NA","NA","28","0","0","0","0","0","0","0","28","11/03/20 13:55:58","Default description","yes","simont_HV.osexp","C:\Users\admin\Desktop\임채은\!MouseTracking_final","no","sans","no","18","no","black","no","yes","768","10","None","10","None","legacy","28","28","2","C:/Users/admin/Desktop/임채은/!MouseTracking_final/subject-21.csv","legacy","2","2","2","Kafkaesque Koffka","3.2.6","0","blue","space","NA","None","blue","start","space","NA","NA","NA","NA","401","109184","NA","250","401","203","16228","NA","NA","NA","NA","2","legacy","1024","2","48000","-16","experiment","21","odd","legacy","red","green","blue","yellow","2","18261","NA","NA","209378","2029","NA","208221","208725","208977","208016","NA","2032","209385","210385","208725","208977","NA","NA","NA","NA","208016","NA","NA","NA","NA","NA","NA","127445","208015","[208726.0, 208736.0, 208746.0, 208756.0, 208766.0, 208776.0, 208786.0, 208796.0, 208806.0, 208816.0, 208826.0, 208836.0, 208846.0, 208856.0, 208866.0, 208876.0, 208886.0, 208896.0, 208906.0, 208916.0, 208926.0, 208936.0, 208946.0, 208956.0, 208966.0, 208976.0]","[208977.0, 208987.0, 208997.0, 209007.0, 209017.0, 209027.0, 209037.0, 209047.0, 209057.0, 209067.0, 209077.0, 209087.0, 209097.0, 209107.0, 209117.0, 209127.0, 209137.0, 209147.0, 209157.0, 209167.0, 209177.0, 209187.0, 209197.0, 209207.0, 209217.0, 209227.0, 209237.0, 209247.0, 209257.0, 209267.0, 209277.0, 209287.0, 209297.0, 209307.0, 209317.0, 209327.0, 209337.0, 209347.0, 209357.0, 209367.0, 209377.0, 209378]","example_experiment","29","17374","29","yes","768","4","[0, 0, 0, 0, 0, 0, 0, 0, 0, 0, 0, 0, 0, 0, 0, 0, 0, 0, 0, 0, 0, 0, 0, 0, 0, 0]","[0, 0, -1, -3, -4, -6, -7, -7, -7, -7, -7, -7, -7, -7, -7, -6, -4, 0, 1, 1, 0, -2, -5, -9, -13, -16, -17, -18, -19, -19, -19, -19, -19, -19, -19, -19, -19, -19, -19, -19, -19, -19]","[0, 0, 0, 0, 0, 0, 0, 0, 0, 0, 0, 0, 0, 0, 0, 0, 0, 0, 0, 0, 0, 0, 0, 0, 0, 0]","[0, 0, 0, 0, 0, 0, 0, 0, 0, 0, 0, 0, 0, 0, 0, -2, -12, -31, -58, -101, -148, -198, -239, -272, -289, -298, -302, -304, -305, -305, -305, -305, -305, -305, -305, -305, -305, -305, -305, -305, -305, -305]"
"100","100","597.6","597.6","black","no","prac","3","legacy","legacy","w.png","w.png","g.png","w.png","2","legacy","0","relative","1","undefined","NA","green","NA","undefined","1","undefined","undefined","green","2","0","3","0","29","0","NA","29","29","29","29","29","0","29","29","29","29","0","4","NA","NA","29","0","0","0","0","0","0","0","29","11/03/20 13:55:58","Default description","yes","simont_HV.osexp","C:\Users\admin\Desktop\임채은\!MouseTracking_final","no","sans","no","18","no","black","no","yes","768","50","None","50","None","legacy","29","29","2","C:/Users/admin/Desktop/임채은/!MouseTracking_final/subject-21.csv","legacy","1","2","2","Kafkaesque Koffka","3.2.6","0","green","space","NA","None","green","start","space","NA","NA","NA","NA","554","109184","NA","250","554","212","16228","NA","NA","NA","NA","2","legacy","1024","2","48000","-16","experiment","21","odd","legacy","red","green","blue","yellow","1","18261","NA","NA","212030","2029","NA","210720","211224","211476","210506","NA","2032","212055","213055","211224","211476","NA","NA","NA","NA","210506","NA","NA","NA","NA","NA","NA","127445","210504","[211225.0, 211235.0, 211245.0, 211255.0, 211265.0, 211275.0, 211285.0, 211295.0, 211305.0, 211315.0, 211325.0, 211335.0, 211345.0, 211355.0, 211365.0, 211375.0, 211385.0, 211395.0, 211405.0, 211415.0, 211425.0, 211435.0, 211445.0, 211455.0, 211465.0, 211475.0]","[211476.0, 211486.0, 211496.0, 211506.0, 211516.0, 211526.0, 211536.0, 211546.0, 211556.0, 211566.0, 211576.0, 211586.0, 211596.0, 211606.0, 211616.0, 211626.0, 211636.0, 211646.0, 211656.0, 211666.0, 211676.0, 211686.0, 211696.0, 211706.0, 211716.0, 211726.0, 211736.0, 211746.0, 211756.0, 211766.0, 211776.0, 211786.0, 211796.0, 211798, 211808.0, 211818.0, 211828.0, 211838.0, 211848.0, 211858.0, 211868.0, 211878.0, 211888.0, 211898.0, 211908.0, 211918.0, 211928.0, 211938.0, 211948.0, 211958.0, 211968.0, 211978.0, 211988.0, 211998.0, 212008.0, 212018.0, 212028.0, 212030]","example_experiment","30","17928","30","yes","768","3","[0, 0, 0, 0, 0, 0, 0, 0, 0, 0, 0, 0, 0, 0, 0, 0, 0, 0, 0, 0, 0, 0, 0, 0, 0, 0]","[0, 0, 0, 0, 0, 0, 2, 7, 15, 28, 46, 67, 89, 115, 146, 177, 213, 251, 282, 311, 328, 342, 350, 356, 358, 358, 358, 358, 358, 358, 358, 358, 358, 358, 358, 358, 358, 358, 358, 357, 356, 353, 348, 340, 332, 324, 318, 314, 311, 310, 310, 310, 310, 310, 310, 310, 310, 310]","[0, 0, 0, 0, 0, 0, 0, 0, 0, 0, 0, 0, 0, 0, 0, 0, 0, 0, 0, 0, 0, 0, 0, 0, 0, 0]","[0, 0, 0, 0, 0, 0, 0, 0, 2, 5, 7, 11, 13, 14, 14, 14, 14, 15, 17, 18, 20, 21, 22, 23, 23, 23, 23, 23, 23, 23, 23, 23, 23, 23, 23, 23, 23, 23, 23, 22, 22, 21, 20, 18, 16, 14, 14, 13, 13, 13, 12, 12, 12, 12, 11, 11, 11, 11]"
"100","100","587.032258065","587.032258065","black","no","block1","0","legacy","legacy","w.png","r.png","w.png","w.png","1","legacy","0","relative","1","undefined","NA","red","NA","undefined","1","undefined","undefined","red","1","0","3","0","30","0","NA","30","30","30","30","30","0","30","30","30","30","0","4","NA","NA","30","0","0","0","0","0","0","0","30","11/03/20 13:55:58","Default description","yes","simont_HV.osexp","C:\Users\admin\Desktop\임채은\!MouseTracking_final","no","sans","no","18","no","black","no","yes","768","0","120","0","230","legacy","0","29","1","C:/Users/admin/Desktop/임채은/!MouseTracking_final/subject-21.csv","legacy","1","0","0","Kafkaesque Koffka","3.2.6","0","red","space","NA","None","red","start","space","space","NA","NA","NA","270","109184","NA","250","270","449","16228","34381","NA","NA","NA","2","legacy","1024","2","48000","-16","experiment","21","odd","legacy","red","green","blue","yellow","1","18261","NA","NA","249014","2029","NA","247988","248492","248744","247538","NA","2032","249025","250025","248492","248744","213095","NA","NA","NA","247538","247476","NA","NA","NA","NA","NA","127445","247537","[248493.0, 248503.0, 248513.0, 248523.0, 248533.0, 248543.0, 248553.0, 248563.0, 248573.0, 248583.0, 248593.0, 248603.0, 248613.0, 248623.0, 248633.0, 248643.0, 248653.0, 248663.0, 248673.0, 248683.0, 248693.0, 248703.0, 248713.0, 248723.0, 248733.0, 248743.0]","[248744.0, 248754.0, 248764.0, 248774.0, 248784.0, 248794.0, 248804.0, 248814.0, 248824.0, 248834.0, 248844.0, 248854.0, 248864.0, 248874.0, 248884.0, 248894.0, 248904.0, 248914.0, 248924.0, 248934.0, 248944.0, 248954.0, 248964.0, 248974.0, 248984.0, 248994.0, 249004.0, 249014.0, 249014]","example_experiment","31","18198","31","yes","768","0","[0, 0, 0, 0, 0, 0, 0, 0, 0, 0, 0, 0, 0, 0, -2, -4, -7, -7, -8, -8, -8, -10, -13, -19, -26, -37]","[-40, -54, -74, -101, -127, -159, -192, -226, -257, -286, -302, -311, -313, -313, -313, -313, -313, -313, -313, -313, -315, -315, -316, -316, -316, -316, -316, -316, -316]","[0, 0, 0, 0, 0, 0, 0, 0, 0, 0, 0, 0, 0, -1, -3, -3, -3, -3, -4, -5, -6, -7, -8, -9, -10, -10]","[-10, -10, -10, -10, -9, -8, -8, -8, -8, -11, -13, -14, -15, -15, -15, -15, -15, -15, -15, -15, -15, -15, -15, -15, -15, -15, -15, -15, -15]"
"100","100","579.46875","579.46875","black","no","block1","0","legacy","legacy","w.png","w.png","w.png","b.png","1","legacy","0","relative","1","undefined","NA","blue","NA","undefined","1","undefined","undefined","blue","3","0","3","0","31","0","NA","31","31","31","31","31","0","31","31","31","31","0","4","NA","NA","31","0","0","0","0","0","0","0","31","11/03/20 13:55:58","Default description","yes","simont_HV.osexp","C:\Users\admin\Desktop\임채은\!MouseTracking_final","no","sans","no","18","no","black","no","yes","768","0","200","0","None","legacy","1","29","1","C:/Users/admin/Desktop/임채은/!MouseTracking_final/subject-21.csv","legacy","1","1","0","Kafkaesque Koffka","3.2.6","0","blue","space","NA","None","blue","start","space","space","NA","NA","NA","345","109184","NA","250","345","344","16228","34381","NA","NA","NA","2","legacy","1024","2","48000","-16","experiment","21","odd","legacy","red","green","blue","yellow","2","18261","NA","NA","251580","2029","NA","250479","250983","251235","250134","NA","2032","251585","252585","250983","251235","213095","NA","NA","NA","250134","247476","NA","NA","NA","NA","NA","127445","250133","[250984.0, 250994.0, 251004.0, 251014.0, 251024.0, 251034.0, 251044.0, 251054.0, 251064.0, 251074.0, 251084.0, 251094.0, 251104.0, 251114.0, 251124.0, 251134.0, 251144.0, 251154.0, 251164.0, 251174.0, 251184.0, 251194.0, 251204.0, 251214.0, 251224.0, 251234.0]","[251235.0, 251245.0, 251255.0, 251265.0, 251275.0, 251285.0, 251295.0, 251305.0, 251315.0, 251325.0, 251335.0, 251345.0, 251355.0, 251365.0, 251375.0, 251385.0, 251395.0, 251405.0, 251415.0, 251425.0, 251435.0, 251445.0, 251455.0, 251465.0, 251475.0, 251485.0, 251495.0, 251505.0, 251515.0, 251525.0, 251535.0, 251545.0, 251555.0, 251565.0, 251575.0, 251580]","example_experiment","32","18543","32","yes","768","0","[0, 0, 0, 0, 0, 0, 0, 0, 0, 0, 0, 0, 0, 0, 0, 0, 0, 0, 0, 0, 0, -1, -1, -2, -2, -4]","[-4, -5, -5, -5, -5, -6, -7, -8, -9, -9, -9, -9, -9, -8, -7, -5, -4, -3, -3, -2, -2, -2, -1, -1, -1, -1, -1, -1, -1, -1, -1, -1, -1, -1, -1, -1]","[0, 0, 0, 0, 0, 0, 0, 0, 0, 0, 0, 0, 0, 0, 0, 0, 0, 0, 0, 0, 0, -5, -13, -26, -40, -57]","[-62, -83, -109, -137, -159, -179, -195, -205, -213, -218, -222, -224, -227, -230, -232, -236, -241, -247, -253, -259, -264, -268, -273, -278, -284, -290, -296, -300, -304, -306, -307, -307, -307, -307, -307, -307]"
"100","100","577.515151515","577.515151515","black","no","block1","1","legacy","legacy","w.png","r.png","w.png","w.png","1","legacy","0","relative","1","undefined","NA","red","NA","undefined","1","undefined","undefined","red","1","0","3","0","32","0","NA","32","32","32","32","32","0","32","32","32","32","0","4","NA","NA","32","0","0","0","0","0","0","0","32","11/03/20 13:55:58","Default description","yes","simont_HV.osexp","C:\Users\admin\Desktop\임채은\!MouseTracking_final","no","sans","no","18","no","black","no","yes","768","0","None","0","10","legacy","2","29","1","C:/Users/admin/Desktop/임채은/!MouseTracking_final/subject-21.csv","legacy","1","1","1","Kafkaesque Koffka","3.2.6","0","red","space","NA","None","red","start","space","space","NA","NA","NA","515","109184","NA","250","515","262","16228","34381","NA","NA","NA","2","legacy","1024","2","48000","-16","experiment","21","odd","legacy","red","green","blue","yellow","1","18261","NA","NA","254245","2029","NA","252974","253478","253730","252710","NA","2032","254265","255265","253478","253730","213095","NA","NA","NA","252710","247476","NA","NA","NA","NA","NA","127445","252709","[253479.0, 253489.0, 253499.0, 253509.0, 253519.0, 253529.0, 253539.0, 253549.0, 253559.0, 253569.0, 253579.0, 253589.0, 253599.0, 253609.0, 253619.0, 253629.0, 253639.0, 253649.0, 253659.0, 253669.0, 253679.0, 253689.0, 253699.0, 253709.0, 253719.0, 253729.0]","[253730.0, 253740.0, 253750.0, 253760.0, 253770.0, 253780.0, 253790.0, 253800.0, 253810.0, 253820.0, 253830.0, 253840.0, 253850.0, 253860.0, 253870.0, 253880.0, 253890.0, 253900.0, 253910.0, 253920.0, 253930.0, 253940.0, 253950.0, 253960.0, 253970.0, 253980.0, 253990.0, 254000.0, 254010.0, 254020.0, 254030.0, 254040.0, 254050.0, 254060.0, 254070.0, 254080.0, 254090.0, 254100.0, 254110.0, 254120.0, 254130.0, 254140.0, 254150.0, 254160.0, 254170.0, 254180.0, 254190.0, 254200.0, 254210.0, 254220.0, 254230.0, 254240.0, 254245]","example_experiment","33","19058","33","yes","768","1","[0, 0, 0, 0, 0, 0, 0, 0, 0, 0, 0, 0, 0, 0, 0, 0, 0, 0, 0, 0, 0, 0, 0, 0, 0, 0]","[0, -2, -6, -12, -19, -30, -46, -72, -110, -163, -223, -290, -342, -383, -384, -384, -384, -384, -384, -384, -384, -384, -378, -370, -365, -362, -359, -358, -356, -355, -354, -353, -352, -352, -351, -351, -351, -349, -348, -347, -344, -342, -340, -338, -337, -336, -333, -327, -319, -309, -300, -293, -290]","[0, 0, 0, 0, 0, 0, 0, 0, 0, 0, 0, 0, 0, 0, 0, 0, 0, 0, 0, 0, 0, 0, 0, 0, 0, 0]","[0, -1, -2, -3, -3, -3, -3, -4, -7, -12, -20, -31, -40, -45, -48, -51, -53, -53, -53, -53, -52, -49, -45, -42, -39, -38, -36, -35, -35, -34, -34, -32, -32, -31, -29, -25, -21, -16, -11, -7, -3, 0, 2, 3, 4, 4, 5, 6, 7, 9, 10, 11, 11]"
"100","100","579.588235294","579.588235294","black","no","block1","2","legacy","legacy","w.png","w.png","w.png","y.png","2","legacy","0","relative","1","undefined","NA","yellow","NA","undefined","1","undefined","undefined","yellow","4","0","3","0","33","0","NA","33","33","33","33","33","0","33","33","33","33","0","4","NA","NA","33","0","0","0","0","0","0","0","33","11/03/20 13:55:58","Default description","yes","simont_HV.osexp","C:\Users\admin\Desktop\임채은\!MouseTracking_final","no","sans","no","18","no","black","no","yes","768","30","None","30","260","legacy","3","29","1","C:/Users/admin/Desktop/임채은/!MouseTracking_final/subject-21.csv","legacy","2","1","1","Kafkaesque Koffka","3.2.6","0","yellow","space","NA","None","yellow","start","space","space","NA","NA","NA","648","109184","NA","250","648","276","16228","34381","NA","NA","NA","2","legacy","1024","2","48000","-16","experiment","21","odd","legacy","red","green","blue","yellow","2","18261","NA","NA","257054","2029","NA","255650","256154","256406","255373","NA","2032","257065","258065","256154","256406","213095","NA","NA","NA","255373","247476","NA","NA","NA","NA","NA","127445","255371","[256155.0, 256165.0, 256175.0, 256185.0, 256195.0, 256205.0, 256215.0, 256225.0, 256235.0, 256245.0, 256255.0, 256265.0, 256275.0, 256285.0, 256295.0, 256305.0, 256315.0, 256325.0, 256335.0, 256345.0, 256355.0, 256365.0, 256375.0, 256385.0, 256395.0, 256405.0]","[256406.0, 256416.0, 256426.0, 256436.0, 256446.0, 256456.0, 256466.0, 256476.0, 256486.0, 256496.0, 256506.0, 256516.0, 256526.0, 256536.0, 256546.0, 256556.0, 256566.0, 256576.0, 256586.0, 256596.0, 256606.0, 256616.0, 256626.0, 256636.0, 256646.0, 256656.0, 256666.0, 256676.0, 256686.0, 256696.0, 256706.0, 256716.0, 256726.0, 256736.0, 256746.0, 256756.0, 256766.0, 256776.0, 256786.0, 256796.0, 256806.0, 256816.0, 256826.0, 256836.0, 256846.0, 256856.0, 256866.0, 256876.0, 256886.0, 256896.0, 256906.0, 256916.0, 256926.0, 256936.0, 256946.0, 256956.0, 256966.0, 256976.0, 256986.0, 256996.0, 257006.0, 257016.0, 257026.0, 257036.0, 257046.0, 257054]","example_experiment","34","19706","34","yes","768","2","[0, 0, 0, 0, 0, 0, 0, 0, 0, 0, 0, 0, 0, 0, 0, 0, 0, 0, 0, 0, 0, 0, 0, 0, 0, 0]","[0, 0, 0, 0, 0, 0, 2, 3, 3, 3, 2, 1, 0, 0, 0, 0, 0, 0, 0, 0, 0, 0, -1, -4, -8, -14, -19, -21, -21, -21, -21, -22, -24, -27, -30, -31, -31, -29, -26, -23, -19, -15, -11, -5, 0, 5, 10, 14, 16, 17, 18, 19, 19, 19, 19, 19, 19, 18, 17, 15, 14, 14, 13, 13, 13, 13]","[0, 0, 0, 0, 0, 0, 0, 0, 0, 0, 0, 0, 0, 0, 0, 0, 0, 0, 0, 0, 0, 0, 0, 0, 0, 0]","[0, 0, 0, 0, -1, -8, -18, -31, -47, -65, -82, -92, -96, -97, -98, -98, -98, -98, -98, -95, -82, -62, -32, 2, 37, 65, 85, 98, 110, 122, 134, 143, 153, 163, 171, 176, 182, 186, 192, 198, 208, 221, 233, 246, 255, 266, 278, 287, 293, 297, 301, 304, 305, 305, 305, 305, 305, 305, 305, 304, 303, 303, 303, 303, 303, 303]"
"100","100","579.514285714","579.514285714","black","no","block1","3","legacy","legacy","w.png","w.png","g.png","w.png","2","legacy","0","relative","1","undefined","NA","green","NA","undefined","1","undefined","undefined","green","2","0","3","0","34","0","NA","34","34","34","34","34","0","34","34","34","34","0","4","NA","NA","34","0","0","0","0","0","0","0","34","11/03/20 13:55:58","Default description","yes","simont_HV.osexp","C:\Users\admin\Desktop\임채은\!MouseTracking_final","no","sans","no","18","no","black","no","yes","768","80","None","80","None","legacy","4","29","2","C:/Users/admin/Desktop/임채은/!MouseTracking_final/subject-21.csv","legacy","1","2","1","Kafkaesque Koffka","3.2.6","0","green","space","NA","None","green","start","space","space","NA","NA","NA","577","109184","NA","250","577","241","16228","34381","NA","NA","NA","2","legacy","1024","2","48000","-16","experiment","21","odd","legacy","red","green","blue","yellow","1","18261","NA","NA","259752","2029","NA","258419","258923","259175","258177","NA","2032","259755","260755","258923","259175","213095","NA","NA","NA","258177","247476","NA","NA","NA","NA","NA","127445","258175","[258924.0, 258934.0, 258944.0, 258954.0, 258964.0, 258974.0, 258984.0, 258994.0, 259004.0, 259014.0, 259024.0, 259034.0, 259044.0, 259054.0, 259064.0, 259074.0, 259084.0, 259094.0, 259104.0, 259114.0, 259124.0, 259134.0, 259144.0, 259154.0, 259164.0, 259174.0]","[259175.0, 259185.0, 259195.0, 259205.0, 259215.0, 259225.0, 259235.0, 259245.0, 259255.0, 259265.0, 259275.0, 259285.0, 259295.0, 259305.0, 259315.0, 259325.0, 259335.0, 259345.0, 259355.0, 259365.0, 259375.0, 259385.0, 259395.0, 259405.0, 259415.0, 259425.0, 259435.0, 259445.0, 259455.0, 259465.0, 259475.0, 259485.0, 259495.0, 259505.0, 259515.0, 259525.0, 259535.0, 259545.0, 259555.0, 259565.0, 259575.0, 259585.0, 259595.0, 259605.0, 259615.0, 259625.0, 259635.0, 259645.0, 259655.0, 259665.0, 259675.0, 259685.0, 259695.0, 259705.0, 259715.0, 259725.0, 259735.0, 259745.0, 259752]","example_experiment","35","20283","35","yes","768","1","[0, 0, 0, 0, 0, 0, 0, 0, 0, 0, 0, 0, 0, 0, 0, 0, 0, 0, 0, 0, 0, 0, 0, 0, 0, 0]","[0, 0, 0, 0, 0, 0, 0, 0, 0, -3, -9, -16, -28, -44, -63, -88, -110, -129, -139, -140, -138, -132, -120, -102, -73, -36, 11, 65, 119, 168, 207, 239, 260, 272, 276, 276, 276, 272, 269, 267, 266, 266, 266, 266, 265, 265, 264, 264, 264, 264, 264, 268, 277, 291, 307, 321, 334, 344, 349]","[0, 0, 0, 0, 0, 0, 0, 0, 0, 0, 0, 0, 0, 0, 0, 0, 0, 0, 0, 0, 0, 0, 0, 0, 0, 0]","[0, 0, 0, 0, 0, 0, 0, 0, 0, 1, 3, 5, 8, 10, 13, 15, 18, 21, 24, 25, 25, 26, 26, 26, 26, 26, 26, 26, 29, 32, 35, 37, 38, 38, 38, 38, 38, 38, 37, 37, 36, 36, 36, 36, 36, 36, 35, 35, 35, 33, 30, 23, 13, 3, -5, -12, -17, -21, -22]"
