"acc","accuracy","average_response_time","avg_rt","background","bidi","block","btwC","canvas_backend","clock_backend","colD","colL","colR","colU","color","color_backend","compensation","coordinates","correct","correct_answerins","correct_button_get_response_bef","correct_button_get_response_pos","correct_button_get_start_click","correct_get_response_bef","correct_get_response_pos","correct_get_start_click","correct_instructions","correct_resp","correctkey","count_answerins","count_break1","count_break3","count_correct_f","count_experiment","count_feedback","count_fixation500s","count_get_response_bef","count_get_response_pos","count_get_start_click","count_incorrect_f","count_instructions","count_iti1000","count_logger","count_present_stimulus","count_present_stimulus2","count_start_gogo","count_start_gogo_1","count_start_gogo_1_1","count_start_gogo_1_2","count_start_screen","count_stimuli1","count_stimuli2","count_stimuli3","count_stimuli4","count_stimuli5","count_stimuli6","count_stimuli_prac","count_trial","datetime","description","disable_garbage_collection","experiment_file","experiment_path","font_bold","font_family","font_italic","font_size","font_underline","foreground","form_clicks","fullscreen","height","initiation_time","initiation_time_get_response_bef","initiation_time_get_response_pos","initiation_time_get_start_click","keyboard_backend","live_row","live_row_stimuli_prac","loc","logfile","mouse_backend","n0","n1","n2","opensesame_codename","opensesame_version","repeat_cycle","response","response_answerins","response_feedback","response_get_response_bef","response_get_response_pos","response_get_start_click","response_instructions","response_start_gogo","response_start_gogo_1","response_start_gogo_1_1","response_start_gogo_1_2","response_time","response_time_answerins","response_time_feedback","response_time_get_response_bef","response_time_get_response_pos","response_time_get_start_click","response_time_instructions","response_time_start_gogo","response_time_start_gogo_1","response_time_start_gogo_1_1","response_time_start_gogo_1_2","round_decimals","sampler_backend","sound_buf_size","sound_channels","sound_freq","sound_sample_size","start","subject_nr","subject_parity","synth_backend","tar1L","tar2R","tar3U","tar4D","taskType","time_answerins","time_break1","time_break3","time_correct_f","time_experiment","time_feedback","time_fixation500s","time_get_response_bef","time_get_response_pos","time_get_start_click","time_incorrect_f","time_instructions","time_iti1000","time_logger","time_present_stimulus","time_present_stimulus2","time_start_gogo","time_start_gogo_1","time_start_gogo_1_1","time_start_gogo_1_2","time_start_screen","time_stimuli1","time_stimuli2","time_stimuli3","time_stimuli4","time_stimuli5","time_stimuli6","time_stimuli_prac","time_trial","timestamps_get_response_bef","timestamps_get_response_pos","title","total_correct","total_response_time","total_responses","uniform_coordinates","width","withC","xpos_get_response_bef","xpos_get_response_pos","ypos_get_response_bef","ypos_get_response_pos"
"undefined","undefined","undefined","undefined","black","no","prac","0","legacy","legacy","w.png","w.png","r.png","w.png","1","legacy","0","relative","undefined","undefined","NA","NA","NA","NA","NA","undefined","undefined","red","1","0","3","0","0","0","NA","0","0","0","0","0","0","0","0","0","0","0","4","NA","NA","0","0","0","0","0","0","0","0","0","10/16/20 14:44:49","Default description","yes","simont_HV.osexp","C:\Users\admin\Desktop\임채은\!MouseTracking_final","no","sans","no","18","no","black","no","yes","768","0","NA","NA","0","legacy","0","0","2","C:/Users/admin/Desktop/임채은/!MouseTracking_final/subject-12.csv","legacy","2","0","0","Kafkaesque Koffka","3.2.6","0","None","space","NA","NA","NA","None","space","NA","NA","NA","NA","1500","93855","NA","NA","NA","1500","25153","NA","NA","NA","NA","2","legacy","1024","2","48000","-16","experiment","12","even","legacy","red","green","blue","yellow","1","26727","NA","NA","NA","1568","NA","NA","NA","NA","120645","122151","1573","122291","123291","NA","NA","NA","NA","NA","NA","120645","NA","NA","NA","NA","NA","NA","120582","120644","NA","NA","example_experiment","0","0","0","yes","768","0","NA","NA","NA","NA"
"0","0","1750","1750","black","no","prac","0","legacy","legacy","w.png","w.png","w.png","b.png","1","legacy","0","relative","0","undefined","NA","blue","NA","undefined","0","undefined","undefined","blue","3","0","3","0","1","0","NA","1","1","1","1","1","0","1","1","1","1","0","4","NA","NA","1","0","0","0","0","0","0","0","1","10/16/20 14:44:49","Default description","yes","simont_HV.osexp","C:\Users\admin\Desktop\임채은\!MouseTracking_final","no","sans","no","18","no","black","no","yes","768","820","None","820","None","legacy","1","1","1","C:/Users/admin/Desktop/임채은/!MouseTracking_final/subject-12.csv","legacy","1","2","0","Kafkaesque Koffka","3.2.6","0","None","space","NA","None","None","start","space","NA","NA","NA","NA","1750","93855","NA","250","1750","918","25153","NA","NA","NA","NA","2","legacy","1024","2","48000","-16","experiment","12","even","legacy","red","green","blue","yellow","2","26727","NA","NA","NA","1568","NA","124345","124850","125102","123426","126852","1573","127001","128001","124850","125102","NA","NA","NA","NA","123426","NA","NA","NA","NA","NA","NA","120582","123425","[124851.0, 124861.0, 124871.0, 124881.0, 124891.0, 124901.0, 124911.0, 124921.0, 124931.0, 124941.0, 124951.0, 124961.0, 124971.0, 124981.0, 124991.0, 125001.0, 125011.0, 125021.0, 125031.0, 125041.0, 125051.0, 125061.0, 125071.0, 125081.0, 125091.0, 125101.0]","[125102.0, 125112.0, 125122.0, 125132.0, 125142.0, 125152.0, 125162.0, 125172.0, 125182.0, 125192.0, 125202.0, 125212.0, 125222.0, 125232.0, 125242.0, 125252.0, 125262.0, 125272.0, 125282.0, 125292.0, 125302.0, 125312.0, 125322.0, 125332.0, 125342.0, 125352.0, 125362.0, 125372.0, 125382.0, 125392.0, 125402.0, 125412.0, 125422.0, 125432.0, 125442.0, 125452.0, 125462.0, 125472.0, 125482.0, 125492.0, 125502.0, 125512.0, 125522.0, 125532.0, 125542.0, 125552.0, 125562.0, 125572.0, 125582.0, 125592.0, 125602.0, 125612.0, 125622.0, 125632.0, 125642.0, 125652.0, 125662.0, 125672.0, 125682.0, 125692.0, 125702.0, 125712.0, 125722.0, 125732.0, 125742.0, 125752.0, 125762.0, 125772.0, 125782.0, 125792.0, 125802.0, 125812.0, 125822.0, 125832.0, 125842.0, 125852.0, 125862.0, 125872.0, 125882.0, 125892.0, 125902.0, 125912.0, 125922.0, 125932.0, 125942.0, 125952.0, 125962.0, 125972.0, 125982.0, 125992.0, 126002.0, 126012.0, 126022.0, 126032.0, 126042.0, 126052.0, 126062.0, 126072.0, 126082.0, 126092.0, 126102.0, 126112.0, 126122.0, 126132.0, 126142.0, 126152.0, 126162.0, 126172.0, 126182.0, 126192.0, 126202.0, 126212.0, 126222.0, 126232.0, 126242.0, 126252.0, 126262.0, 126272.0, 126282.0, 126292.0, 126302.0, 126312.0, 126322.0, 126332.0, 126342.0, 126352.0, 126362.0, 126372.0, 126382.0, 126392.0, 126402.0, 126412.0, 126422.0, 126432.0, 126442.0, 126452.0, 126462.0, 126472.0, 126482.0, 126492.0, 126502.0, 126512.0, 126522.0, 126532.0, 126542.0, 126552.0, 126562.0, 126572.0, 126582.0, 126592.0, 126602.0, 126612.0, 126622.0, 126632.0, 126642.0, 126652.0, 126662.0, 126672.0, 126682.0, 126692.0, 126702.0, 126712.0, 126722.0, 126732.0, 126742.0, 126752.0, 126762.0, 126772.0, 126782.0, 126792.0, 126802.0, 126812.0, 126822.0, 126832.0, 126842.0, 126852.0]","example_experiment","0","1750","1","yes","768","0","[0, 0, 0, 0, 0, 0, 0, 0, 0, 0, 0, 0, 0, 0, 0, 0, 0, 0, 0, 0, 0, 0, 0, 0, 0, 0]","[0, 0, 0, 0, 0, 0, 0, 0, 0, 0, 0, 0, 0, 0, 0, 0, 0, 0, 0, 0, 0, 0, 0, 0, 0, 0, 0, 0, 0, 0, 0, 0, 0, 0, 0, 0, 0, 0, 0, 0, 0, 0, 0, 0, 0, 0, 0, 0, 0, 0, 0, 0, 0, 0, 0, 0, 0, 0, 0, 0, 0, 0, 0, 0, 0, 0, 0, 0, 0, 0, 0, 0, 0, 0, 0, 0, 0, 0, 0, 0, 0, 0, 0, 0, 0, 0, 0, 0, 0, 0, 0, 0, -1, -2, -4, -5, -6, -7, -8, -9, -9, -10, -10, -10, -10, -10, -9, -8, -6, -5, -4, -3, -1, 0, 2, 3, 4, 4, 6, 7, 8, 9, 9, 10, 10, 11, 11, 11, 11, 11, 11, 11, 11, 11, 11, 11, 11, 10, 10, 9, 8, 8, 8, 8, 8, 7, 7, 7, 6, 5, 4, 4, 3, 3, 2, 1, 1, 1, 1, 1, 1, 1, 1, 1, 1, 1, 1, 1, 1, 1, 1, 1, 1, 1, 1, 1]","[0, 0, 0, 0, 0, 0, 0, 0, 0, 0, 0, 0, 0, 0, 0, 0, 0, 0, 0, 0, 0, 0, 0, 0, 0, 0]","[0, 0, 0, 0, 0, 0, 0, 0, 0, 0, 0, 0, 0, 0, 0, 0, 0, 0, 0, 0, 0, 0, 0, 0, 0, 0, 0, 0, 0, 0, 0, 0, 0, 0, 0, 0, 0, 0, 0, 0, 0, 0, 0, 0, 0, 0, 0, 0, 0, 0, 0, 0, 0, 0, 0, 0, 0, 0, 0, 0, 0, 0, 0, 0, 0, 0, 0, 0, 0, 0, 0, 0, 0, 0, 0, 0, 0, 0, 0, 0, 0, 0, 0, -1, -5, -9, -16, -24, -33, -47, -61, -76, -89, -102, -113, -120, -126, -132, -137, -141, -145, -148, -152, -155, -159, -164, -171, -176, -182, -188, -193, -198, -204, -210, -215, -220, -223, -227, -230, -234, -237, -240, -243, -246, -249, -251, -252, -253, -253, -253, -253, -254, -255, -256, -258, -260, -262, -263, -265, -266, -267, -267, -267, -268, -269, -271, -273, -275, -277, -279, -281, -283, -286, -288, -291, -293, -294, -294, -295, -295, -295, -295, -295, -295, -295, -295, -295, -295, -295, -295, -295, -295, -295, -295, -295, -295]"
"50","50","1437.5","1437.5","black","no","prac","2","legacy","legacy","w.png","g.png","w.png","w.png","2","legacy","0","relative","1","undefined","NA","green","NA","undefined","1","undefined","undefined","green","2","0","3","0","2","0","NA","2","2","2","2","2","0","2","2","2","2","0","4","NA","NA","2","0","0","0","0","0","0","0","2","10/16/20 14:44:49","Default description","yes","simont_HV.osexp","C:\Users\admin\Desktop\임채은\!MouseTracking_final","no","sans","no","18","no","black","no","yes","768","250","None","250","None","legacy","2","2","1","C:/Users/admin/Desktop/임채은/!MouseTracking_final/subject-12.csv","legacy","2","1","2","Kafkaesque Koffka","3.2.6","0","green","space","NA","None","green","start","space","NA","NA","NA","NA","1125","93855","NA","250","1125","539","25153","NA","NA","NA","NA","2","legacy","1024","2","48000","-16","experiment","12","even","legacy","red","green","blue","yellow","1","26727","NA","NA","130546","1568","NA","128665","129169","129421","128125","126852","1573","130561","131561","129169","129421","NA","NA","NA","NA","128125","NA","NA","NA","NA","NA","NA","120582","128123","[129170.0, 129180.0, 129190.0, 129200.0, 129210.0, 129220.0, 129230.0, 129240.0, 129250.0, 129260.0, 129270.0, 129280.0, 129290.0, 129300.0, 129310.0, 129320.0, 129330.0, 129340.0, 129350.0, 129360.0, 129370.0, 129380.0, 129390.0, 129400.0, 129410.0, 129420.0]","[129421.0, 129431.0, 129441.0, 129451.0, 129461.0, 129471.0, 129481.0, 129491.0, 129501.0, 129511.0, 129521.0, 129531.0, 129541.0, 129551.0, 129561.0, 129571.0, 129581.0, 129591.0, 129601.0, 129611.0, 129621.0, 129631.0, 129641.0, 129651.0, 129661.0, 129671.0, 129681.0, 129691.0, 129701.0, 129711.0, 129721.0, 129731.0, 129741.0, 129751.0, 129761.0, 129771.0, 129781.0, 129791.0, 129801.0, 129811.0, 129821.0, 129831.0, 129841.0, 129851.0, 129861.0, 129871.0, 129881.0, 129891.0, 129901.0, 129911.0, 129921.0, 129931.0, 129941.0, 129951.0, 129961.0, 129971.0, 129981.0, 129991.0, 130001.0, 130011.0, 130021.0, 130031.0, 130041.0, 130051.0, 130061.0, 130071.0, 130081.0, 130091.0, 130101.0, 130111.0, 130121.0, 130131.0, 130141.0, 130151.0, 130161.0, 130171.0, 130181.0, 130191.0, 130201.0, 130211.0, 130221.0, 130231.0, 130241.0, 130251.0, 130261.0, 130271.0, 130281.0, 130291.0, 130301.0, 130311.0, 130321.0, 130331.0, 130341.0, 130351.0, 130361.0, 130371.0, 130381.0, 130391.0, 130401.0, 130411.0, 130421.0, 130431.0, 130441.0, 130451.0, 130461.0, 130471.0, 130481.0, 130491.0, 130501.0, 130511.0, 130521.0, 130531.0, 130541.0, 130546]","example_experiment","1","2875","2","yes","768","4","[0, 0, 0, 0, 0, 0, 0, 0, 0, 0, 0, 0, 0, 0, 0, 0, 0, 0, 0, 0, 0, 0, 0, 0, 0, 0]","[0, 0, 0, 0, 0, 0, 0, 0, 0, 0, 0, 0, 0, 0, 0, 0, 0, 0, 0, 0, 0, 0, 0, 0, 0, 0, -1, -4, -6, -7, -8, -8, -8, -8, -8, -8, -6, -3, 3, 11, 20, 34, 48, 70, 94, 121, 151, 179, 205, 226, 243, 257, 266, 272, 276, 278, 278, 278, 278, 278, 278, 278, 278, 278, 278, 278, 278, 277, 277, 277, 277, 277, 277, 277, 277, 277, 277, 277, 277, 277, 277, 277, 277, 277, 277, 277, 277, 276, 272, 265, 256, 245, 235, 230, 229, 229, 229, 231, 234, 236, 239, 245, 251, 261, 273, 286, 299, 309, 317, 325, 330, 333, 334, 334]","[0, 0, 0, 0, 0, 0, 0, 0, 0, 0, 0, 0, 0, 0, 0, 0, 0, 0, 0, 0, 0, 0, 0, 0, 0, 0]","[0, 0, 0, 0, 0, 0, 0, 0, 0, 0, 0, 0, 0, 0, 0, 0, 0, 0, 0, 0, 0, 0, 0, 0, 0, 0, 0, 0, 0, 0, 0, 0, 0, 0, 0, 0, 0, 0, 1, 1, 1, 1, 1, -2, -5, -6, -7, -8, -8, -8, -8, -8, -8, -7, -7, -7, -7, -7, -7, -7, -7, -7, -7, -7, -7, -7, -7, -7, -7, -7, -7, -7, -7, -7, -7, -7, -7, -7, -7, -7, -7, -7, -7, -7, -7, -7, -7, -7, -5, 1, 11, 23, 33, 38, 38, 38, 37, 33, 30, 26, 23, 20, 17, 14, 12, 10, 7, 5, 4, 2, 2, 1, 1, 1]"
"66.6666666667","66.6666666667","1149.33333333","1149.33333333","black","no","prac","3","legacy","legacy","w.png","w.png","w.png","b.png","1","legacy","0","relative","1","undefined","NA","blue","NA","undefined","1","undefined","undefined","blue","3","0","3","0","3","0","NA","3","3","3","3","3","0","3","3","3","3","0","4","NA","NA","3","0","0","0","0","0","0","0","3","10/16/20 14:44:49","Default description","yes","simont_HV.osexp","C:\Users\admin\Desktop\임채은\!MouseTracking_final","no","sans","no","18","no","black","no","yes","768","120","None","120","None","legacy","3","3","1","C:/Users/admin/Desktop/임채은/!MouseTracking_final/subject-12.csv","legacy","1","2","1","Kafkaesque Koffka","3.2.6","0","blue","space","NA","None","blue","start","space","NA","NA","NA","NA","573","93855","NA","250","573","566","25153","NA","NA","NA","NA","2","legacy","1024","2","48000","-16","experiment","12","even","legacy","red","green","blue","yellow","2","26727","NA","NA","133576","1568","NA","132248","132752","133003","131681","126852","1573","133591","134591","132751","133003","NA","NA","NA","NA","131681","NA","NA","NA","NA","NA","NA","120582","131679","[132752.0, 132762.0, 132772.0, 132782.0, 132792.0, 132802.0, 132812.0, 132822.0, 132832.0, 132842.0, 132852.0, 132862.0, 132872.0, 132882.0, 132892.0, 132902.0, 132912.0, 132922.0, 132932.0, 132942.0, 132952.0, 132962.0, 132972.0, 132982.0, 132992.0, 133002.0]","[133003.0, 133013.0, 133023.0, 133033.0, 133043.0, 133053.0, 133063.0, 133073.0, 133083.0, 133093.0, 133103.0, 133113.0, 133123.0, 133133.0, 133143.0, 133153.0, 133163.0, 133173.0, 133183.0, 133193.0, 133203.0, 133213.0, 133223.0, 133233.0, 133243.0, 133253.0, 133263.0, 133273.0, 133283.0, 133293.0, 133303.0, 133313.0, 133323.0, 133333.0, 133343.0, 133353.0, 133363.0, 133373.0, 133383.0, 133393.0, 133403.0, 133413.0, 133423.0, 133433.0, 133443.0, 133453.0, 133463.0, 133473.0, 133483.0, 133493.0, 133503.0, 133513.0, 133523.0, 133533.0, 133543.0, 133553.0, 133563.0, 133573.0, 133576]","example_experiment","2","3448","3","yes","768","1","[0, 0, 0, 0, 0, 0, 0, 0, 0, 0, 0, 0, 0, 0, 0, 0, 0, 0, 0, 0, 0, 0, 0, 0, 0, 0]","[0, 0, 0, 0, 0, 0, 0, 0, 0, 0, 0, 0, 0, 0, 0, 0, 0, 0, 0, -1, -3, -4, -6, -8, -11, -12, -12, -12, -12, -12, -13, -13, -14, -14, -14, -14, -14, -14, -12, -10, -8, -7, -5, -5, -4, -4, -3, -3, -3, -2, -2, -1, -1, -1, -1, -1, -1, -1, -1]","[0, 0, 0, 0, 0, 0, 0, 0, 0, 0, 0, 0, 0, 0, 0, 0, 0, 0, 0, 0, 0, 0, 0, 0, 0, 0]","[0, 0, 0, 0, 0, 0, 0, 0, 0, 0, 0, 0, 0, -3, -10, -20, -33, -49, -66, -84, -100, -119, -141, -163, -181, -195, -205, -211, -216, -221, -226, -230, -235, -239, -242, -245, -249, -254, -258, -263, -267, -270, -272, -275, -278, -281, -283, -287, -290, -292, -293, -293, -293, -293, -293, -293, -293, -293, -293]"
"75","75","1023.25","1023.25","black","no","prac","1","legacy","legacy","w.png","w.png","g.png","w.png","2","legacy","0","relative","1","undefined","NA","green","NA","undefined","1","undefined","undefined","green","2","0","3","0","4","0","NA","4","4","4","4","4","0","4","4","4","4","0","4","NA","NA","4","0","0","0","0","0","0","0","4","10/16/20 14:44:49","Default description","yes","simont_HV.osexp","C:\Users\admin\Desktop\임채은\!MouseTracking_final","no","sans","no","18","no","black","no","yes","768","180","None","180","None","legacy","4","4","2","C:/Users/admin/Desktop/임채은/!MouseTracking_final/subject-12.csv","legacy","1","1","2","Kafkaesque Koffka","3.2.6","0","green","space","NA","None","green","start","space","NA","NA","NA","NA","645","93855","NA","250","645","378","25153","NA","NA","NA","NA","2","legacy","1024","2","48000","-16","experiment","12","even","legacy","red","green","blue","yellow","1","26727","NA","NA","136489","1568","NA","135088","135592","135844","134708","126852","1573","136501","137501","135592","135844","NA","NA","NA","NA","134708","NA","NA","NA","NA","NA","NA","120582","134707","[135593.0, 135603.0, 135613.0, 135623.0, 135633.0, 135643.0, 135653.0, 135663.0, 135673.0, 135683.0, 135693.0, 135703.0, 135713.0, 135723.0, 135733.0, 135743.0, 135753.0, 135763.0, 135773.0, 135783.0, 135793.0, 135803.0, 135813.0, 135823.0, 135833.0, 135843.0]","[135844.0, 135854.0, 135864.0, 135874.0, 135884.0, 135894.0, 135904.0, 135914.0, 135924.0, 135934.0, 135944.0, 135954.0, 135964.0, 135974.0, 135984.0, 135994.0, 136004.0, 136014.0, 136024.0, 136034.0, 136044.0, 136054.0, 136064.0, 136074.0, 136084.0, 136094.0, 136104.0, 136114.0, 136124.0, 136134.0, 136144.0, 136154.0, 136164.0, 136174.0, 136184.0, 136194.0, 136204.0, 136214.0, 136224.0, 136234.0, 136244.0, 136254.0, 136264.0, 136274.0, 136284.0, 136294.0, 136304.0, 136314.0, 136324.0, 136334.0, 136344.0, 136354.0, 136364.0, 136374.0, 136384.0, 136394.0, 136404.0, 136414.0, 136424.0, 136434.0, 136444.0, 136454.0, 136464.0, 136474.0, 136484.0, 136489]","example_experiment","3","4093","4","yes","768","3","[0, 0, 0, 0, 0, 0, 0, 0, 0, 0, 0, 0, 0, 0, 0, 0, 0, 0, 0, 0, 0, 0, 0, 0, 0, 0]","[0, 0, 0, 0, 0, 0, 0, 0, 0, 0, 0, 0, 0, 0, 0, 0, 0, 0, 0, 2, 8, 16, 25, 34, 44, 59, 78, 102, 123, 147, 167, 185, 203, 223, 244, 262, 278, 291, 299, 307, 315, 322, 329, 333, 334, 334, 334, 334, 334, 334, 334, 333, 332, 332, 331, 330, 328, 325, 321, 318, 317, 317, 317, 317, 317, 317]","[0, 0, 0, 0, 0, 0, 0, 0, 0, 0, 0, 0, 0, 0, 0, 0, 0, 0, 0, 0, 0, 0, 0, 0, 0, 0]","[0, 0, 0, 0, 0, 0, 0, 0, 0, 0, 0, 0, 0, 0, 0, 0, 0, 0, 0, 0, -2, -5, -8, -10, -13, -14, -14, -14, -15, -15, -15, -15, -14, -11, -6, -1, 4, 8, 11, 14, 16, 18, 20, 21, 21, 21, 21, 21, 21, 21, 20, 18, 17, 16, 15, 14, 13, 11, 9, 8, 8, 8, 8, 8, 8, 8]"
"80","80","937.6","937.6","black","no","prac","1","legacy","legacy","y.png","w.png","w.png","w.png","2","legacy","0","relative","1","undefined","NA","yellow","NA","undefined","1","undefined","undefined","yellow","4","0","3","0","5","0","NA","5","5","5","5","5","0","5","5","5","5","0","4","NA","NA","5","0","0","0","0","0","0","0","5","10/16/20 14:44:49","Default description","yes","simont_HV.osexp","C:\Users\admin\Desktop\임채은\!MouseTracking_final","no","sans","no","18","no","black","no","yes","768","70","None","70","None","legacy","5","5","2","C:/Users/admin/Desktop/임채은/!MouseTracking_final/subject-12.csv","legacy","1","1","1","Kafkaesque Koffka","3.2.6","0","yellow","space","NA","None","yellow","start","space","NA","NA","NA","NA","595","93855","NA","250","595","338","25153","NA","NA","NA","NA","2","legacy","1024","2","48000","-16","experiment","12","even","legacy","red","green","blue","yellow","2","26727","NA","NA","139310","1568","NA","137957","138462","138714","137618","126852","1573","139331","140331","138462","138714","NA","NA","NA","NA","137618","NA","NA","NA","NA","NA","NA","120582","137616","[138463.0, 138473.0, 138483.0, 138493.0, 138503.0, 138513.0, 138523.0, 138533.0, 138543.0, 138553.0, 138563.0, 138573.0, 138583.0, 138593.0, 138603.0, 138613.0, 138623.0, 138633.0, 138643.0, 138653.0, 138663.0, 138673.0, 138683.0, 138693.0, 138703.0, 138713.0]","[138714.0, 138724.0, 138734.0, 138744.0, 138754.0, 138764.0, 138774.0, 138784.0, 138794.0, 138804.0, 138814.0, 138824.0, 138834.0, 138844.0, 138854.0, 138864.0, 138874.0, 138884.0, 138894.0, 138904.0, 138914.0, 138924.0, 138934.0, 138944.0, 138954.0, 138964.0, 138974.0, 138984.0, 138994.0, 139004.0, 139014.0, 139024.0, 139034.0, 139044.0, 139054.0, 139064.0, 139074.0, 139084.0, 139094.0, 139104.0, 139114.0, 139124.0, 139134.0, 139144.0, 139154.0, 139164.0, 139174.0, 139184.0, 139194.0, 139204.0, 139214.0, 139224.0, 139234.0, 139244.0, 139254.0, 139264.0, 139274.0, 139284.0, 139294.0, 139304.0, 139309]","example_experiment","4","4688","5","yes","768","1","[0, 0, 0, 0, 0, 0, 0, 0, 0, 0, 0, 0, 0, 0, 0, 0, 0, 0, 0, 0, 0, 0, 0, 0, 0, 0]","[0, 0, 0, 0, 0, 0, 0, 0, 0, 0, 1, 2, 2, 2, 3, 3, 3, 3, 4, 4, 4, 5, 7, 8, 8, 8, 5, 2, 1, 1, 1, 1, 1, 1, 1, 1, 1, 0, 0, 0, 0, 0, 0, 0, 0, 0, 0, 0, 0, 0, 0, 0, 0, 0, 0, 0, 0, 0, 0, 0, 0]","[0, 0, 0, 0, 0, 0, 0, 0, 0, 0, 0, 0, 0, 0, 0, 0, 0, 0, 0, 0, 0, 0, 0, 0, 0, 0]","[0, 0, 0, 0, 0, 0, 0, 0, 4, 9, 15, 21, 25, 29, 35, 42, 51, 60, 72, 88, 112, 146, 183, 223, 259, 295, 322, 340, 355, 360, 361, 361, 361, 361, 361, 361, 358, 354, 348, 343, 338, 334, 331, 329, 327, 325, 322, 320, 319, 319, 319, 319, 319, 319, 319, 319, 319, 319, 319, 319, 319]"
"83.3333333333","83.3333333333","943.833333333","943.833333333","black","no","prac","2","legacy","legacy","w.png","w.png","r.png","w.png","1","legacy","0","relative","1","undefined","NA","red","NA","undefined","1","undefined","undefined","red","1","0","3","0","6","0","NA","6","6","6","6","6","0","6","6","6","6","0","4","NA","NA","6","0","0","0","0","0","0","0","6","10/16/20 14:44:49","Default description","yes","simont_HV.osexp","C:\Users\admin\Desktop\임채은\!MouseTracking_final","no","sans","no","18","no","black","no","yes","768","20","None","20","None","legacy","6","6","2","C:/Users/admin/Desktop/임채은/!MouseTracking_final/subject-12.csv","legacy","2","1","1","Kafkaesque Koffka","3.2.6","0","red","space","NA","None","red","start","space","NA","NA","NA","NA","975","93855","NA","250","975","242","25153","NA","NA","NA","NA","2","legacy","1024","2","48000","-16","experiment","12","even","legacy","red","green","blue","yellow","1","26727","NA","NA","142406","1568","NA","140676","141179","141431","140432","126852","1573","142431","143431","141179","141431","NA","NA","NA","NA","140432","NA","NA","NA","NA","NA","NA","120582","140430","[141180.0, 141190.0, 141200.0, 141210.0, 141220.0, 141230.0, 141240.0, 141250.0, 141260.0, 141270.0, 141280.0, 141290.0, 141300.0, 141310.0, 141320.0, 141330.0, 141340.0, 141350.0, 141360.0, 141370.0, 141380.0, 141390.0, 141400.0, 141410.0, 141420.0, 141430.0]","[141431.0, 141441.0, 141451.0, 141461.0, 141471.0, 141481.0, 141491.0, 141501.0, 141511.0, 141521.0, 141531.0, 141541.0, 141551.0, 141561.0, 141571.0, 141581.0, 141591.0, 141601.0, 141611.0, 141621.0, 141631.0, 141641.0, 141651.0, 141661.0, 141671.0, 141681.0, 141691.0, 141701.0, 141711.0, 141721.0, 141731.0, 141741.0, 141751.0, 141761.0, 141771.0, 141781.0, 141791.0, 141801.0, 141811.0, 141821.0, 141831.0, 141841.0, 141851.0, 141861.0, 141871.0, 141881.0, 141891.0, 141901.0, 141911.0, 141921.0, 141931.0, 141941.0, 141951.0, 141961.0, 141971.0, 141981.0, 141991.0, 142001.0, 142011.0, 142021.0, 142031.0, 142041.0, 142047, 142057.0, 142067.0, 142077.0, 142087.0, 142097.0, 142107.0, 142117.0, 142127.0, 142137.0, 142147.0, 142157.0, 142167.0, 142177.0, 142187.0, 142197.0, 142207.0, 142217.0, 142227.0, 142237.0, 142247.0, 142257.0, 142267.0, 142277.0, 142287.0, 142297.0, 142307.0, 142317.0, 142327.0, 142337.0, 142347.0, 142357.0, 142367.0, 142377.0, 142387.0, 142397.0, 142406]","example_experiment","5","5663","6","yes","768","2","[0, 0, 0, 0, 0, 0, 0, 0, 0, 0, 0, 0, 0, 0, 0, 0, 0, 0, 0, 0, 0, 0, 0, 0, 0, 0]","[0, 0, 0, 2, 6, 11, 15, 18, 19, 19, 19, 19, 18, 14, 9, 2, -7, -20, -35, -57, -81, -104, -129, -150, -172, -189, -205, -217, -227, -233, -237, -238, -239, -240, -240, -241, -241, -242, -243, -244, -245, -246, -248, -249, -251, -252, -254, -255, -258, -261, -265, -269, -273, -276, -279, -281, -284, -285, -286, -286, -286, -286, -286, -286, -286, -286, -286, -286, -286, -286, -286, -286, -286, -286, -286, -286, -286, -286, -286, -286, -286, -286, -286, -286, -286, -286, -286, -287, -288, -291, -294, -296, -298, -299, -300, -300, -300, -300, -300]","[0, 0, 0, 0, 0, 0, 0, 0, 0, 0, 0, 0, 0, 0, 0, 0, 0, 0, 0, 0, 0, 0, 0, 0, 0, 0]","[0, 0, 0, 0, 0, 0, 0, 0, 0, 0, 0, 0, 0, 0, 0, -1, -2, -2, -2, -2, -2, -2, -1, 0, 0, 0, 0, 0, 0, 0, 0, 0, 0, 0, 0, 0, 0, 1, 1, 1, 1, 1, 1, 1, 1, 1, 1, 1, 1, 1, 1, 1, 2, 2, 3, 3, 3, 3, 3, 3, 3, 3, 3, 3, 3, 3, 3, 3, 3, 3, 3, 3, 3, 3, 3, 3, 3, 3, 3, 3, 3, 3, 3, 3, 3, 3, 3, 3, 3, 3, 3, 3, 3, 3, 3, 3, 3, 3, 3]"
"85.7142857143","85.7142857143","971.285714286","971.285714286","black","no","prac","4","legacy","legacy","w.png","w.png","w.png","y.png","2","legacy","0","relative","1","undefined","NA","yellow","NA","undefined","1","undefined","undefined","yellow","4","0","3","0","7","0","NA","7","7","7","7","7","0","7","7","7","7","0","4","NA","NA","7","0","0","0","0","0","0","0","7","10/16/20 14:44:49","Default description","yes","simont_HV.osexp","C:\Users\admin\Desktop\임채은\!MouseTracking_final","no","sans","no","18","no","black","no","yes","768","0","220","0","None","legacy","7","7","1","C:/Users/admin/Desktop/임채은/!MouseTracking_final/subject-12.csv","legacy","2","2","1","Kafkaesque Koffka","3.2.6","0","yellow","space","NA","None","yellow","start","space","NA","NA","NA","NA","1136","93855","NA","250","1136","750","25153","NA","NA","NA","NA","2","legacy","1024","2","48000","-16","experiment","12","even","legacy","red","green","blue","yellow","2","26727","NA","NA","146180","1568","NA","144287","144792","145044","143536","126852","1573","146201","147201","144792","145044","NA","NA","NA","NA","143536","NA","NA","NA","NA","NA","NA","120582","143535","[144793.0, 144803.0, 144813.0, 144823.0, 144833.0, 144843.0, 144853.0, 144863.0, 144873.0, 144883.0, 144893.0, 144903.0, 144913.0, 144923.0, 144933.0, 144943.0, 144953.0, 144963.0, 144973.0, 144983.0, 144993.0, 145003.0, 145013.0, 145023.0, 145033.0, 145043.0]","[145044.0, 145054.0, 145064.0, 145074.0, 145084.0, 145094.0, 145104.0, 145114.0, 145124.0, 145134.0, 145144.0, 145154.0, 145164.0, 145174.0, 145184.0, 145194.0, 145204.0, 145214.0, 145224.0, 145234.0, 145244.0, 145254.0, 145264.0, 145274.0, 145284.0, 145294.0, 145304.0, 145314.0, 145324.0, 145334.0, 145344.0, 145354.0, 145364.0, 145374.0, 145384.0, 145394.0, 145404.0, 145414.0, 145424.0, 145434.0, 145444.0, 145454.0, 145464.0, 145474.0, 145484.0, 145494.0, 145504.0, 145514.0, 145524.0, 145534.0, 145544.0, 145554.0, 145564.0, 145574.0, 145584.0, 145594.0, 145604.0, 145614.0, 145624.0, 145634.0, 145644.0, 145654.0, 145664.0, 145674.0, 145684.0, 145694.0, 145704.0, 145714.0, 145724.0, 145734.0, 145744.0, 145754.0, 145764.0, 145774.0, 145784.0, 145794.0, 145804.0, 145814.0, 145824.0, 145834.0, 145844.0, 145854.0, 145864.0, 145874.0, 145884.0, 145894.0, 145904.0, 145914.0, 145924.0, 145934.0, 145944.0, 145954.0, 145964.0, 145974.0, 145984.0, 145994.0, 146004.0, 146014.0, 146024.0, 146034.0, 146044.0, 146054.0, 146064.0, 146074.0, 146084.0, 146094.0, 146104.0, 146114.0, 146124.0, 146134.0, 146144.0, 146154.0, 146164.0, 146174.0, 146180]","example_experiment","6","6799","7","yes","768","2","[0, 0, 0, 0, 0, 0, 0, 0, 0, 0, 0, 0, 0, 0, 0, 0, 0, 0, 0, 0, 0, 0, 0, 0, 0, -1]","[-1, -1, -2, -4, -5, -6, -6, -6, -6, -6, -6, -6, -6, -6, -6, -6, -6, -6, -6, -6, -6, -6, -6, -5, -5, -5, -5, -5, -5, -5, -5, -5, -5, -5, -5, -5, -5, -6, -8, -11, -11, -11, -10, -7, -5, -3, -3, -3, -3, -3, -2, -2, -1, -1, -1, -1, -1, -1, -1, -1, -1, 0, 1, 1, 1, 0, 0, -1, -2, -3, -4, -4, -4, -4, -4, -4, -4, -4, -4, -3, -3, -1, -1, 0, 0, 0, 0, 0, 0, 0, 0, 0, 1, 1, 2, 2, 2, 2, 2, 2, 2, 2, 2, 3, 3, 4, 4, 5, 5, 5, 5, 5, 5, 5, 5]","[0, 0, 0, 0, 0, 0, 0, 0, 0, 0, 0, 0, 0, 0, 0, 0, 0, 0, 0, 0, 0, 0, 0, -1, -6, -13]","[-14, -22, -33, -46, -59, -70, -76, -78, -79, -79, -79, -79, -79, -79, -79, -79, -79, -79, -79, -79, -79, -77, -76, -75, -74, -74, -73, -72, -72, -70, -67, -62, -55, -47, -37, -30, -23, -18, -12, -6, 2, 12, 25, 40, 56, 71, 84, 96, 109, 122, 137, 149, 157, 163, 166, 168, 170, 171, 172, 173, 175, 179, 184, 190, 199, 208, 218, 225, 231, 234, 238, 241, 245, 250, 256, 260, 263, 264, 266, 268, 271, 274, 277, 279, 280, 280, 281, 281, 281, 281, 281, 284, 287, 291, 293, 295, 295, 296, 296, 297, 297, 297, 297, 298, 300, 302, 303, 303, 303, 304, 304, 304, 304, 304, 304]"
"87.5","87.5","907.75","907.75","black","no","prac","3","legacy","legacy","w.png","r.png","w.png","w.png","1","legacy","0","relative","1","undefined","NA","red","NA","undefined","1","undefined","undefined","red","1","0","3","0","8","0","NA","8","8","8","8","8","0","8","8","8","8","0","4","NA","NA","8","0","0","0","0","0","0","0","8","10/16/20 14:44:49","Default description","yes","simont_HV.osexp","C:\Users\admin\Desktop\임채은\!MouseTracking_final","no","sans","no","18","no","black","no","yes","768","100","None","100","None","legacy","8","8","1","C:/Users/admin/Desktop/임채은/!MouseTracking_final/subject-12.csv","legacy","1","2","2","Kafkaesque Koffka","3.2.6","0","red","space","NA","None","red","start","space","NA","NA","NA","NA","463","93855","NA","250","463","333","25153","NA","NA","NA","NA","2","legacy","1024","2","48000","-16","experiment","12","even","legacy","red","green","blue","yellow","1","26727","NA","NA","148868","1568","NA","147648","148153","148405","147314","126852","1573","148871","149871","148153","148405","NA","NA","NA","NA","147314","NA","NA","NA","NA","NA","NA","120582","147313","[148154.0, 148164.0, 148174.0, 148184.0, 148194.0, 148204.0, 148214.0, 148224.0, 148234.0, 148244.0, 148254.0, 148264.0, 148274.0, 148284.0, 148294.0, 148304.0, 148314.0, 148324.0, 148334.0, 148344.0, 148354.0, 148364.0, 148374.0, 148384.0, 148394.0, 148404.0]","[148405.0, 148415.0, 148425.0, 148435.0, 148445.0, 148455.0, 148465.0, 148475.0, 148485.0, 148495.0, 148505.0, 148515.0, 148525.0, 148535.0, 148545.0, 148555.0, 148565.0, 148575.0, 148585.0, 148595.0, 148605.0, 148615.0, 148625.0, 148635.0, 148645.0, 148655.0, 148665.0, 148675.0, 148685.0, 148695.0, 148705.0, 148715.0, 148725.0, 148735.0, 148745.0, 148755.0, 148765.0, 148775.0, 148785.0, 148795.0, 148805.0, 148815.0, 148825.0, 148835.0, 148845.0, 148855.0, 148865.0, 148868]","example_experiment","7","7262","8","yes","768","3","[0, 0, 0, 0, 0, 0, 0, 0, 0, 0, 0, 0, 0, 0, 0, 0, 0, 0, 0, 0, 0, 0, 0, 0, 0, 0]","[0, 0, 0, 0, 0, 0, 0, 0, 0, 0, 0, -5, -11, -20, -32, -46, -68, -94, -123, -155, -187, -214, -241, -262, -281, -296, -308, -314, -318, -318, -318, -318, -318, -318, -318, -318, -318, -318, -318, -318, -318, -318, -318, -319, -319, -319, -319, -319]","[0, 0, 0, 0, 0, 0, 0, 0, 0, 0, 0, 0, 0, 0, 0, 0, 0, 0, 0, 0, 0, 0, 0, 0, 0, 0]","[0, 0, 0, 0, 0, 0, 0, 0, 0, 0, 0, 0, 0, 1, 2, 3, 4, 5, 6, 7, 7, 10, 11, 13, 14, 15, 15, 15, 15, 15, 15, 15, 15, 15, 15, 15, 15, 15, 15, 15, 15, 15, 15, 15, 15, 15, 15, 15]"
"88.8888888889","88.8888888889","878.666666667","878.666666667","black","no","prac","1","legacy","legacy","y.png","w.png","w.png","w.png","2","legacy","0","relative","1","undefined","NA","yellow","NA","undefined","1","undefined","undefined","yellow","4","0","3","0","9","0","NA","9","9","9","9","9","0","9","9","9","9","0","4","NA","NA","9","0","0","0","0","0","0","0","9","10/16/20 14:44:49","Default description","yes","simont_HV.osexp","C:\Users\admin\Desktop\임채은\!MouseTracking_final","no","sans","no","18","no","black","no","yes","768","30","None","30","None","legacy","9","9","2","C:/Users/admin/Desktop/임채은/!MouseTracking_final/subject-12.csv","legacy","1","1","2","Kafkaesque Koffka","3.2.6","0","yellow","space","NA","None","yellow","start","space","NA","NA","NA","NA","646","93855","NA","250","646","263","25153","NA","NA","NA","NA","2","legacy","1024","2","48000","-16","experiment","12","even","legacy","red","green","blue","yellow","2","26727","NA","NA","151653","1568","NA","150251","150754","151006","149985","126852","1573","151661","152661","150754","151006","NA","NA","NA","NA","149985","NA","NA","NA","NA","NA","NA","120582","149984","[150755.0, 150765.0, 150775.0, 150785.0, 150795.0, 150805.0, 150815.0, 150825.0, 150835.0, 150845.0, 150855.0, 150865.0, 150875.0, 150885.0, 150895.0, 150905.0, 150915.0, 150925.0, 150935.0, 150945.0, 150955.0, 150965.0, 150975.0, 150985.0, 150995.0, 151005.0]","[151006.0, 151016.0, 151026.0, 151036.0, 151046.0, 151056.0, 151066.0, 151076.0, 151086.0, 151096.0, 151106.0, 151116.0, 151126.0, 151136.0, 151146.0, 151156.0, 151166.0, 151176.0, 151186.0, 151196.0, 151206.0, 151216.0, 151226.0, 151236.0, 151246.0, 151256.0, 151266.0, 151276.0, 151286.0, 151296.0, 151306.0, 151316.0, 151326.0, 151336.0, 151346.0, 151356.0, 151366.0, 151376.0, 151386.0, 151396.0, 151406.0, 151416.0, 151426.0, 151436.0, 151446.0, 151456.0, 151466.0, 151476.0, 151486.0, 151496.0, 151506.0, 151516.0, 151526.0, 151536.0, 151546.0, 151556.0, 151566.0, 151576.0, 151586.0, 151596.0, 151606.0, 151616.0, 151626.0, 151636.0, 151646.0, 151652]","example_experiment","8","7908","9","yes","768","3","[0, 0, 0, 0, 0, 0, 0, 0, 0, 0, 0, 0, 0, 0, 0, 0, 0, 0, 0, 0, 0, 0, 0, 0, 0, 0]","[0, 0, 0, 0, 0, -1, -2, -4, -5, -5, -6, -6, -7, -8, -8, -8, -7, -5, -3, -1, -1, -1, -1, 0, 1, 2, 2, 2, 2, 2, 0, -1, -1, -2, -3, -5, -7, -8, -8, -8, -8, -8, -8, -8, -8, -8, -8, -8, -8, -8, -8, -8, -8, -8, -8, -8, -8, -8, -8, -8, -8, -8, -8, -8, -8, -8]","[0, 0, 0, 0, 0, 0, 0, 0, 0, 0, 0, 0, 0, 0, 0, 0, 0, 0, 0, 0, 0, 0, 0, 0, 0, 0]","[0, 0, 0, 0, 1, 6, 16, 27, 38, 49, 57, 65, 71, 78, 90, 107, 126, 143, 161, 174, 183, 191, 198, 204, 210, 214, 217, 220, 224, 231, 242, 255, 269, 283, 296, 308, 318, 325, 330, 332, 333, 334, 334, 334, 334, 334, 334, 334, 334, 334, 334, 334, 334, 334, 334, 334, 332, 331, 329, 328, 328, 328, 328, 328, 328, 328]"
"90","90","828","828","black","no","prac","1","legacy","legacy","w.png","w.png","g.png","w.png","2","legacy","0","relative","1","undefined","NA","green","NA","undefined","1","undefined","undefined","green","2","0","3","0","10","0","NA","10","10","10","10","10","0","10","10","10","10","0","4","NA","NA","10","0","0","0","0","0","0","0","10","10/16/20 14:44:49","Default description","yes","simont_HV.osexp","C:\Users\admin\Desktop\임채은\!MouseTracking_final","no","sans","no","18","no","black","no","yes","768","20","None","20","None","legacy","10","10","2","C:/Users/admin/Desktop/임채은/!MouseTracking_final/subject-12.csv","legacy","1","1","1","Kafkaesque Koffka","3.2.6","0","green","space","NA","None","green","start","space","NA","NA","NA","NA","372","93855","NA","250","372","384","25153","NA","NA","NA","NA","2","legacy","1024","2","48000","-16","experiment","12","even","legacy","red","green","blue","yellow","1","26727","NA","NA","154286","1568","NA","153160","153662","153913","152774","126852","1573","154291","155291","153662","153913","NA","NA","NA","NA","152774","NA","NA","NA","NA","NA","NA","120582","152773","[153662.0, 153672.0, 153682.0, 153692.0, 153702.0, 153712.0, 153722.0, 153732.0, 153742.0, 153752.0, 153762.0, 153772.0, 153782.0, 153792.0, 153802.0, 153812.0, 153822.0, 153832.0, 153842.0, 153852.0, 153862.0, 153872.0, 153882.0, 153892.0, 153902.0, 153912.0]","[153913.0, 153923.0, 153933.0, 153943.0, 153953.0, 153963.0, 153973.0, 153983.0, 153993.0, 154003.0, 154013.0, 154023.0, 154033.0, 154043.0, 154053.0, 154063.0, 154073.0, 154083.0, 154093.0, 154103.0, 154113.0, 154123.0, 154133.0, 154143.0, 154153.0, 154163.0, 154173.0, 154183.0, 154193.0, 154203.0, 154213.0, 154223.0, 154233.0, 154243.0, 154253.0, 154263.0, 154273.0, 154283.0, 154285]","example_experiment","9","8280","10","yes","768","1","[0, 0, 0, 0, 0, 0, 0, 0, 0, 0, 0, 0, 0, 0, 0, 0, 0, 0, 0, 0, 0, 0, 0, 0, 0, 0]","[0, 0, 0, 1, 7, 19, 35, 58, 80, 101, 123, 143, 165, 187, 208, 226, 241, 252, 263, 272, 281, 288, 293, 297, 298, 299, 299, 299, 299, 299, 299, 299, 299, 299, 299, 299, 299, 299, 299]","[0, 0, 0, 0, 0, 0, 0, 0, 0, 0, 0, 0, 0, 0, 0, 0, 0, 0, 0, 0, 0, 0, 0, 0, 0, 0]","[0, 0, 0, 0, 0, 1, 1, 1, 1, 1, 1, 1, 1, 1, 1, 1, 1, 1, 1, 1, 3, 5, 6, 7, 7, 7, 7, 7, 7, 7, 7, 7, 7, 7, 7, 7, 7, 7, 7]"
"90.9090909091","90.9090909091","798","798","black","no","prac","1","legacy","legacy","w.png","w.png","w.png","b.png","1","legacy","0","relative","1","undefined","NA","blue","NA","undefined","1","undefined","undefined","blue","3","0","3","0","11","0","NA","11","11","11","11","11","0","11","11","11","11","0","4","NA","NA","11","0","0","0","0","0","0","0","11","10/16/20 14:44:49","Default description","yes","simont_HV.osexp","C:\Users\admin\Desktop\임채은\!MouseTracking_final","no","sans","no","18","no","black","no","yes","768","0","220","0","None","legacy","11","11","1","C:/Users/admin/Desktop/임채은/!MouseTracking_final/subject-12.csv","legacy","1","1","1","Kafkaesque Koffka","3.2.6","0","blue","space","NA","None","blue","start","space","NA","NA","NA","NA","498","93855","NA","250","498","301","25153","NA","NA","NA","NA","2","legacy","1024","2","48000","-16","experiment","12","even","legacy","red","green","blue","yellow","2","26727","NA","NA","156948","1568","NA","155693","156197","156449","155390","126852","1573","156951","157951","156197","156449","NA","NA","NA","NA","155390","NA","NA","NA","NA","NA","NA","120582","155389","[156198.0, 156208.0, 156218.0, 156228.0, 156238.0, 156248.0, 156258.0, 156268.0, 156278.0, 156288.0, 156298.0, 156308.0, 156318.0, 156328.0, 156338.0, 156348.0, 156358.0, 156368.0, 156378.0, 156388.0, 156398.0, 156408.0, 156418.0, 156428.0, 156438.0, 156448.0]","[156449.0, 156459.0, 156469.0, 156479.0, 156489.0, 156499.0, 156509.0, 156519.0, 156529.0, 156539.0, 156549.0, 156559.0, 156569.0, 156579.0, 156589.0, 156599.0, 156609.0, 156619.0, 156629.0, 156639.0, 156649.0, 156659.0, 156669.0, 156679.0, 156689.0, 156699.0, 156709.0, 156719.0, 156729.0, 156739.0, 156749.0, 156759.0, 156769.0, 156779.0, 156789.0, 156799.0, 156809.0, 156819.0, 156829.0, 156839.0, 156849.0, 156859.0, 156869.0, 156879.0, 156889.0, 156899.0, 156909.0, 156919.0, 156929.0, 156939.0, 156947]","example_experiment","10","8778","11","yes","768","1","[0, 0, 0, 0, 0, 0, 0, 0, 0, 0, 0, 0, 0, 0, 0, 0, 0, 0, 0, 0, 0, 0, 0, 0, 4, 7]","[7, 10, 11, 11, 11, 11, 11, 11, 9, 8, 7, 5, 4, 3, 2, 2, 1, 0, 0, 0, 0, 0, 1, 2, 2, 2, 2, 2, 3, 4, 4, 5, 6, 7, 8, 9, 9, 10, 11, 11, 11, 11, 11, 11, 11, 11, 11, 11, 11, 11, 11]","[0, 0, 0, 0, 0, 0, 0, 0, 0, 0, 0, 0, 0, 0, 0, 0, 0, 0, 0, 0, 0, 0, 0, -3, -11, -20]","[-22, -33, -44, -56, -71, -91, -110, -125, -140, -153, -167, -178, -186, -193, -199, -204, -208, -214, -220, -225, -231, -236, -242, -248, -253, -257, -262, -264, -268, -271, -275, -278, -281, -285, -288, -291, -294, -295, -296, -297, -297, -297, -297, -297, -297, -297, -297, -297, -297, -297, -297]"
"91.6666666667","91.6666666667","779.25","779.25","black","no","prac","1","legacy","legacy","w.png","r.png","w.png","w.png","1","legacy","0","relative","1","undefined","NA","red","NA","undefined","1","undefined","undefined","red","1","0","3","0","12","0","NA","12","12","12","12","12","0","12","12","12","12","0","4","NA","NA","12","0","0","0","0","0","0","0","12","10/16/20 14:44:49","Default description","yes","simont_HV.osexp","C:\Users\admin\Desktop\임채은\!MouseTracking_final","no","sans","no","18","no","black","no","yes","768","80","None","80","None","legacy","12","12","1","C:/Users/admin/Desktop/임채은/!MouseTracking_final/subject-12.csv","legacy","1","1","1","Kafkaesque Koffka","3.2.6","0","red","space","NA","None","red","start","space","NA","NA","NA","NA","573","93855","NA","250","573","260","25153","NA","NA","NA","NA","2","legacy","1024","2","48000","-16","experiment","12","even","legacy","red","green","blue","yellow","1","26727","NA","NA","159669","1568","NA","158338","158843","159095","158077","126852","1573","159681","160681","158843","159095","NA","NA","NA","NA","158077","NA","NA","NA","NA","NA","NA","120582","158075","[158844.0, 158854.0, 158864.0, 158874.0, 158884.0, 158894.0, 158904.0, 158914.0, 158924.0, 158934.0, 158944.0, 158954.0, 158964.0, 158974.0, 158984.0, 158994.0, 159004.0, 159014.0, 159024.0, 159034.0, 159044.0, 159054.0, 159064.0, 159074.0, 159084.0, 159094.0]","[159095.0, 159105.0, 159115.0, 159125.0, 159135.0, 159145.0, 159155.0, 159165.0, 159175.0, 159185.0, 159195.0, 159205.0, 159215.0, 159225.0, 159235.0, 159245.0, 159255.0, 159265.0, 159275.0, 159285.0, 159295.0, 159305.0, 159315.0, 159325.0, 159335.0, 159345.0, 159355.0, 159365.0, 159375.0, 159385.0, 159395.0, 159405.0, 159415.0, 159425.0, 159435.0, 159445.0, 159455.0, 159465.0, 159475.0, 159485.0, 159495.0, 159505.0, 159515.0, 159525.0, 159535.0, 159545.0, 159555.0, 159565.0, 159575.0, 159585.0, 159595.0, 159605.0, 159615.0, 159625.0, 159635.0, 159645.0, 159655.0, 159665.0, 159668]","example_experiment","11","9351","12","yes","768","1","[0, 0, 0, 0, 0, 0, 0, 0, 0, 0, 0, 0, 0, 0, 0, 0, 0, 0, 0, 0, 0, 0, 0, 0, 0, 0]","[0, 0, 0, 0, 0, 0, 0, 0, 0, -1, -4, -7, -9, -11, -12, -13, -15, -18, -22, -28, -37, -50, -67, -85, -107, -126, -146, -166, -184, -199, -214, -224, -234, -241, -246, -249, -251, -252, -253, -255, -258, -259, -262, -263, -266, -269, -273, -277, -283, -288, -294, -299, -303, -306, -307, -307, -307, -307, -307]","[0, 0, 0, 0, 0, 0, 0, 0, 0, 0, 0, 0, 0, 0, 0, 0, 0, 0, 0, 0, 0, 0, 0, 0, 0, 0]","[0, 0, 0, 0, 0, 0, 0, 0, 0, 0, 0, 0, 0, 0, 0, 0, 0, 0, 0, 0, 0, 0, 0, 0, 1, 2, 4, 5, 6, 7, 7, 7, 7, 7, 7, 7, 6, 6, 5, 5, 4, 4, 3, 2, 2, 2, 2, 2, 2, 3, 3, 3, 3, 3, 3, 3, 3, 3, 3]"
"92.3076923077","92.3076923077","770.076923077","770.076923077","black","no","prac","2","legacy","legacy","w.png","w.png","w.png","y.png","2","legacy","0","relative","1","undefined","NA","yellow","NA","undefined","1","undefined","undefined","yellow","4","0","3","0","13","0","NA","13","13","13","13","13","0","13","13","13","13","0","4","NA","NA","13","0","0","0","0","0","0","0","13","10/16/20 14:44:49","Default description","yes","simont_HV.osexp","C:\Users\admin\Desktop\임채은\!MouseTracking_final","no","sans","no","18","no","black","no","yes","768","0","None","0","None","legacy","13","13","1","C:/Users/admin/Desktop/임채은/!MouseTracking_final/subject-12.csv","legacy","2","1","1","Kafkaesque Koffka","3.2.6","0","yellow","space","NA","None","yellow","start","space","NA","NA","NA","NA","660","93855","NA","250","660","243","25153","NA","NA","NA","NA","2","legacy","1024","2","48000","-16","experiment","12","even","legacy","red","green","blue","yellow","2","26727","NA","NA","162471","1568","NA","161054","161558","161810","160809","126852","1573","162481","163481","161558","161810","NA","NA","NA","NA","160809","NA","NA","NA","NA","NA","NA","120582","160808","[161559.0, 161569.0, 161579.0, 161589.0, 161599.0, 161609.0, 161619.0, 161629.0, 161639.0, 161649.0, 161659.0, 161669.0, 161679.0, 161689.0, 161699.0, 161709.0, 161719.0, 161729.0, 161739.0, 161749.0, 161759.0, 161769.0, 161779.0, 161789.0, 161799.0, 161809.0]","[161810.0, 161820.0, 161830.0, 161840.0, 161850.0, 161860.0, 161870.0, 161880.0, 161890.0, 161900.0, 161910.0, 161920.0, 161930.0, 161940.0, 161950.0, 161960.0, 161970.0, 161980.0, 161990.0, 162000.0, 162010.0, 162020.0, 162030.0, 162040.0, 162050.0, 162060.0, 162070.0, 162080.0, 162090.0, 162100.0, 162110.0, 162120.0, 162130.0, 162140.0, 162150.0, 162160.0, 162170.0, 162180.0, 162190.0, 162200.0, 162210.0, 162220.0, 162230.0, 162240.0, 162250.0, 162260.0, 162270.0, 162280.0, 162290.0, 162300.0, 162310.0, 162320.0, 162330.0, 162340.0, 162350.0, 162360.0, 162370.0, 162380.0, 162390.0, 162400.0, 162410.0, 162420.0, 162430.0, 162440.0, 162450.0, 162460.0, 162470.0, 162470]","example_experiment","12","10011","13","yes","768","2","[0, 0, 0, 0, 0, 0, 0, 0, 0, 0, 0, 0, 0, 0, 0, 0, 0, 0, 0, 0, 0, 0, 0, 0, 0, 0]","[0, 0, 0, 0, 0, 0, 0, 0, 0, 0, 0, 0, 0, 0, 0, 0, 0, 0, -1, -2, -4, -7, -10, -10, -10, -10, -8, -7, -7, -6, -4, -2, 1, 2, 3, 4, 4, 4, 4, 4, 4, 4, 4, 4, 4, 3, 2, 2, 1, 1, 1, 1, 1, 1, 1, 1, 1, 1, 1, 1, 1, 1, 1, 3, 5, 7, 10, 10]","[0, 0, 0, 0, 0, 0, 0, 0, 0, 0, 0, 0, 0, 0, 0, 0, 0, 0, 0, 0, 0, 0, 0, 0, 0, 0]","[0, -3, -11, -20, -33, -48, -63, -76, -91, -109, -125, -139, -148, -151, -151, -151, -151, -151, -149, -144, -135, -120, -95, -65, -31, 8, 43, 76, 102, 125, 144, 161, 173, 184, 192, 198, 202, 206, 209, 214, 221, 229, 238, 245, 251, 254, 256, 258, 259, 261, 263, 266, 270, 276, 280, 285, 288, 291, 292, 292, 292, 293, 294, 298, 302, 307, 309, 309]"
"92.8571428571","92.8571428571","742.357142857","742.357142857","black","no","prac","3","legacy","legacy","w.png","r.png","w.png","w.png","1","legacy","0","relative","1","undefined","NA","red","NA","undefined","1","undefined","undefined","red","1","0","3","0","14","0","NA","14","14","14","14","14","0","14","14","14","14","0","4","NA","NA","14","0","0","0","0","0","0","0","14","10/16/20 14:44:49","Default description","yes","simont_HV.osexp","C:\Users\admin\Desktop\임채은\!MouseTracking_final","no","sans","no","18","no","black","no","yes","768","50","None","50","20","legacy","14","14","1","C:/Users/admin/Desktop/임채은/!MouseTracking_final/subject-12.csv","legacy","1","2","1","Kafkaesque Koffka","3.2.6","0","red","space","NA","None","red","start","space","NA","NA","NA","NA","382","93855","NA","250","382","276","25153","NA","NA","NA","NA","2","legacy","1024","2","48000","-16","experiment","12","even","legacy","red","green","blue","yellow","1","26727","NA","NA","165017","1568","NA","163878","164382","164634","163600","126852","1573","165021","166021","164382","164634","NA","NA","NA","NA","163600","NA","NA","NA","NA","NA","NA","120582","163598","[164383.0, 164393.0, 164403.0, 164413.0, 164423.0, 164433.0, 164443.0, 164453.0, 164463.0, 164473.0, 164483.0, 164493.0, 164503.0, 164513.0, 164523.0, 164533.0, 164543.0, 164553.0, 164563.0, 164573.0, 164583.0, 164593.0, 164603.0, 164613.0, 164623.0, 164633.0]","[164634.0, 164644.0, 164654.0, 164664.0, 164674.0, 164684.0, 164694.0, 164704.0, 164714.0, 164724.0, 164734.0, 164744.0, 164754.0, 164764.0, 164774.0, 164784.0, 164794.0, 164804.0, 164814.0, 164824.0, 164834.0, 164844.0, 164854.0, 164864.0, 164874.0, 164884.0, 164894.0, 164904.0, 164914.0, 164924.0, 164934.0, 164944.0, 164954.0, 164964.0, 164974.0, 164984.0, 164994.0, 165004.0, 165014.0, 165016]","example_experiment","13","10393","14","yes","768","1","[0, 0, 0, 0, 0, 0, 0, 0, 0, 0, 0, 0, 0, 0, 0, 0, 0, 0, 0, 0, 0, 0, 0, 0, 0, 0]","[0, 0, 0, 0, 0, 0, -2, -7, -12, -18, -25, -36, -50, -70, -99, -130, -162, -193, -224, -250, -276, -295, -308, -316, -319, -319, -319, -319, -319, -319, -319, -319, -319, -319, -319, -319, -319, -319, -319, -319]","[0, 0, 0, 0, 0, 0, 0, 0, 0, 0, 0, 0, 0, 0, 0, 0, 0, 0, 0, 0, 0, 0, 0, 0, 0, 0]","[0, 0, 0, 0, 0, 0, 0, 0, 1, 1, 1, 1, 1, 1, 1, 3, 5, 7, 9, 9, 11, 12, 12, 12, 12, 12, 12, 12, 12, 12, 12, 12, 12, 12, 12, 12, 12, 12, 12, 12]"
"93.3333333333","93.3333333333","731.6","731.6","black","no","prac","2","legacy","legacy","b.png","w.png","w.png","w.png","1","legacy","0","relative","1","undefined","NA","blue","NA","undefined","1","undefined","undefined","blue","3","0","3","0","15","0","NA","15","15","15","15","15","0","15","15","15","15","0","4","NA","NA","15","0","0","0","0","0","0","0","15","10/16/20 14:44:49","Default description","yes","simont_HV.osexp","C:\Users\admin\Desktop\임채은\!MouseTracking_final","no","sans","no","18","no","black","no","yes","768","30","None","30","None","legacy","15","15","2","C:/Users/admin/Desktop/임채은/!MouseTracking_final/subject-12.csv","legacy","2","1","2","Kafkaesque Koffka","3.2.6","0","blue","space","NA","None","blue","start","space","NA","NA","NA","NA","581","93855","NA","250","581","281","25153","NA","NA","NA","NA","2","legacy","1024","2","48000","-16","experiment","12","even","legacy","red","green","blue","yellow","2","26727","NA","NA","167747","1568","NA","166409","166913","167165","166126","126852","1573","167751","168751","166913","167165","NA","NA","NA","NA","166126","NA","NA","NA","NA","NA","NA","120582","166125","[166914.0, 166924.0, 166934.0, 166944.0, 166954.0, 166964.0, 166974.0, 166984.0, 166994.0, 167004.0, 167014.0, 167024.0, 167034.0, 167044.0, 167054.0, 167064.0, 167074.0, 167084.0, 167094.0, 167104.0, 167114.0, 167124.0, 167134.0, 167144.0, 167154.0, 167164.0]","[167165.0, 167175.0, 167185.0, 167195.0, 167205.0, 167215.0, 167225.0, 167235.0, 167245.0, 167255.0, 167265.0, 167275.0, 167285.0, 167295.0, 167305.0, 167315.0, 167325.0, 167335.0, 167345.0, 167355.0, 167365.0, 167375.0, 167385.0, 167395.0, 167405.0, 167415.0, 167425.0, 167435.0, 167445.0, 167455.0, 167465.0, 167475.0, 167485.0, 167495.0, 167505.0, 167515.0, 167525.0, 167535.0, 167545.0, 167555.0, 167565.0, 167575.0, 167585.0, 167595.0, 167605.0, 167615.0, 167625.0, 167635.0, 167645.0, 167655.0, 167665.0, 167675.0, 167685.0, 167695.0, 167705.0, 167715.0, 167725.0, 167735.0, 167745.0, 167746]","example_experiment","14","10974","15","yes","768","4","[0, 0, 0, 0, 0, 0, 0, 0, 0, 0, 0, 0, 0, 0, 0, 0, 0, 0, 0, 0, 0, 0, 0, 0, 0, 0]","[0, 0, 0, 0, 0, 0, 0, 0, -1, -1, -1, -1, -1, -1, -1, -1, -1, -1, -1, -1, 2, 8, 16, 23, 29, 33, 36, 38, 38, 38, 36, 33, 31, 30, 29, 28, 25, 24, 22, 21, 20, 19, 18, 18, 17, 16, 15, 15, 14, 14, 14, 14, 14, 14, 14, 14, 14, 14, 14, 14]","[0, 0, 0, 0, 0, 0, 0, 0, 0, 0, 0, 0, 0, 0, 0, 0, 0, 0, 0, 0, 0, 0, 0, 0, 0, 0]","[0, 0, 0, 0, 5, 12, 17, 23, 29, 34, 39, 44, 49, 52, 53, 53, 53, 53, 53, 52, 49, 42, 32, 20, 7, -6, -21, -40, -61, -85, -107, -126, -144, -156, -172, -185, -197, -207, -215, -223, -228, -236, -242, -250, -257, -265, -271, -276, -279, -281, -282, -283, -285, -287, -290, -292, -294, -294, -294, -294]"
"93.75","93.75","721.1875","721.1875","black","no","prac","4","legacy","legacy","w.png","w.png","r.png","w.png","1","legacy","0","relative","1","undefined","NA","red","NA","undefined","1","undefined","undefined","red","1","0","3","0","16","0","NA","16","16","16","16","16","0","16","16","16","16","0","4","NA","NA","16","0","0","0","0","0","0","0","16","10/16/20 14:44:49","Default description","yes","simont_HV.osexp","C:\Users\admin\Desktop\임채은\!MouseTracking_final","no","sans","no","18","no","black","no","yes","768","130","None","130","None","legacy","16","16","2","C:/Users/admin/Desktop/임채은/!MouseTracking_final/subject-12.csv","legacy","2","2","1","Kafkaesque Koffka","3.2.6","0","red","space","NA","None","red","start","space","NA","NA","NA","NA","565","93855","NA","250","565","287","25153","NA","NA","NA","NA","2","legacy","1024","2","48000","-16","experiment","12","even","legacy","red","green","blue","yellow","1","26727","NA","NA","170497","1568","NA","169177","169680","169931","168888","126852","1573","170501","171501","169679","169931","NA","NA","NA","NA","168888","NA","NA","NA","NA","NA","NA","120582","168887","[169680.0, 169690.0, 169700.0, 169710.0, 169720.0, 169730.0, 169740.0, 169750.0, 169760.0, 169770.0, 169780.0, 169790.0, 169800.0, 169810.0, 169820.0, 169830.0, 169840.0, 169850.0, 169860.0, 169870.0, 169880.0, 169890.0, 169900.0, 169910.0, 169920.0, 169930.0]","[169931.0, 169941.0, 169951.0, 169961.0, 169971.0, 169981.0, 169991.0, 170001.0, 170011.0, 170021.0, 170031.0, 170041.0, 170051.0, 170061.0, 170071.0, 170081.0, 170091.0, 170101.0, 170111.0, 170121.0, 170131.0, 170141.0, 170151.0, 170161.0, 170171.0, 170181.0, 170191.0, 170201.0, 170211.0, 170221.0, 170231.0, 170241.0, 170251.0, 170261.0, 170271.0, 170281.0, 170291.0, 170301.0, 170311.0, 170321.0, 170331.0, 170341.0, 170351.0, 170361.0, 170371.0, 170381.0, 170391.0, 170401.0, 170411.0, 170421.0, 170431.0, 170441.0, 170451.0, 170461.0, 170471.0, 170481.0, 170491.0, 170496]","example_experiment","15","11539","16","yes","768","2","[0, 0, 0, 0, 0, 0, 0, 0, 0, 0, 0, 0, 0, 0, 0, 0, 0, 0, 0, 0, 0, 0, 0, 0, 0, 0]","[0, 0, 0, 0, 0, 0, 0, 0, 0, 0, 0, 0, 0, 0, -1, -5, -11, -16, -22, -32, -46, -62, -82, -101, -119, -137, -154, -172, -190, -204, -217, -227, -236, -241, -247, -251, -254, -256, -258, -259, -261, -264, -269, -276, -283, -290, -296, -302, -306, -309, -310, -312, -312, -313, -313, -313, -313, -313]","[0, 0, 0, 0, 0, 0, 0, 0, 0, 0, 0, 0, 0, 0, 0, 0, 0, 0, 0, 0, 0, 0, 0, 0, 0, 0]","[0, 0, 0, 0, 0, 0, 0, 0, 0, 0, 0, 0, 0, 0, 0, 0, 0, -1, -1, -2, -2, -2, -2, -2, -2, -1, 0, 0, 2, 2, 3, 3, 3, 3, 3, 2, 2, 1, 1, 0, -1, -2, -3, -4, -4, -4, -5, -5, -5, -5, -5, -5, -5, -5, -5, -5, -5, -5]"
"94.1176470588","94.1176470588","710.352941176","710.352941176","black","no","prac","4","legacy","legacy","b.png","w.png","w.png","w.png","1","legacy","0","relative","1","undefined","NA","blue","NA","undefined","1","undefined","undefined","blue","3","0","3","0","17","0","NA","17","17","17","17","17","0","17","17","17","17","0","4","NA","NA","17","0","0","0","0","0","0","0","17","10/16/20 14:44:49","Default description","yes","simont_HV.osexp","C:\Users\admin\Desktop\임채은\!MouseTracking_final","no","sans","no","18","no","black","no","yes","768","170","None","170","None","legacy","17","17","2","C:/Users/admin/Desktop/임채은/!MouseTracking_final/subject-12.csv","legacy","2","2","2","Kafkaesque Koffka","3.2.6","0","blue","space","NA","None","blue","start","space","NA","NA","NA","NA","537","93855","NA","250","537","235","25153","NA","NA","NA","NA","2","legacy","1024","2","48000","-16","experiment","12","even","legacy","red","green","blue","yellow","2","26727","NA","NA","173147","1568","NA","171853","172357","172609","171616","126852","1573","173151","174151","172357","172609","NA","NA","NA","NA","171616","NA","NA","NA","NA","NA","NA","120582","171615","[172358.0, 172368.0, 172378.0, 172388.0, 172398.0, 172408.0, 172418.0, 172428.0, 172438.0, 172448.0, 172458.0, 172468.0, 172478.0, 172488.0, 172498.0, 172508.0, 172518.0, 172528.0, 172538.0, 172548.0, 172558.0, 172568.0, 172578.0, 172588.0, 172598.0, 172608.0]","[172609.0, 172619.0, 172629.0, 172639.0, 172649.0, 172659.0, 172669.0, 172679.0, 172689.0, 172699.0, 172709.0, 172719.0, 172729.0, 172739.0, 172749.0, 172759.0, 172769.0, 172779.0, 172789.0, 172799.0, 172809.0, 172819.0, 172829.0, 172839.0, 172849.0, 172859.0, 172869.0, 172879.0, 172889.0, 172899.0, 172909.0, 172919.0, 172929.0, 172939.0, 172949.0, 172959.0, 172969.0, 172979.0, 172989.0, 172999.0, 173009.0, 173019.0, 173029.0, 173039.0, 173049.0, 173059.0, 173069.0, 173079.0, 173089.0, 173099.0, 173109.0, 173119.0, 173129.0, 173139.0, 173146]","example_experiment","16","12076","17","yes","768","4","[0, 0, 0, 0, 0, 0, 0, 0, 0, 0, 0, 0, 0, 0, 0, 0, 0, 0, 0, 0, 0, 0, 0, 0, 0, 0]","[0, 0, 0, 0, 0, 0, 0, 0, 0, 0, 0, 0, 0, 0, 0, 0, 0, 0, 0, 2, 3, 3, 3, 3, 3, 4, 5, 7, 8, 11, 13, 15, 16, 17, 17, 17, 17, 19, 19, 20, 20, 20, 21, 21, 21, 21, 21, 21, 21, 21, 21, 21, 20, 20, 20]","[0, 0, 0, 0, 0, 0, 0, 0, 0, 0, 0, 0, 0, 0, 0, 0, 0, 0, 0, 0, 0, 0, 0, 0, 0, 0]","[0, 0, 0, 0, 0, 0, 0, 0, 0, 0, 0, 0, 0, 0, 0, 0, 0, 0, -4, -10, -18, -28, -42, -61, -83, -104, -123, -139, -152, -167, -183, -198, -210, -222, -231, -240, -247, -255, -264, -270, -275, -280, -284, -288, -291, -292, -293, -295, -295, -296, -296, -298, -298, -298, -298]"
"94.4444444444","94.4444444444","694.111111111","694.111111111","black","no","prac","4","legacy","legacy","w.png","g.png","w.png","w.png","2","legacy","0","relative","1","undefined","NA","green","NA","undefined","1","undefined","undefined","green","2","0","3","0","18","0","NA","18","18","18","18","18","0","18","18","18","18","0","4","NA","NA","18","0","0","0","0","0","0","0","18","10/16/20 14:44:49","Default description","yes","simont_HV.osexp","C:\Users\admin\Desktop\임채은\!MouseTracking_final","no","sans","no","18","no","black","no","yes","768","140","None","140","None","legacy","18","18","1","C:/Users/admin/Desktop/임채은/!MouseTracking_final/subject-12.csv","legacy","2","2","2","Kafkaesque Koffka","3.2.6","0","green","space","NA","None","green","start","space","NA","NA","NA","NA","418","93855","NA","250","418","216","25153","NA","NA","NA","NA","2","legacy","1024","2","48000","-16","experiment","12","even","legacy","red","green","blue","yellow","1","26727","NA","NA","175650","1568","NA","174475","174979","175231","174257","126852","1573","175661","176661","174979","175231","NA","NA","NA","NA","174257","NA","NA","NA","NA","NA","NA","120582","174255","[174980.0, 174990.0, 175000.0, 175010.0, 175020.0, 175030.0, 175040.0, 175050.0, 175060.0, 175070.0, 175080.0, 175090.0, 175100.0, 175110.0, 175120.0, 175130.0, 175140.0, 175150.0, 175160.0, 175170.0, 175180.0, 175190.0, 175200.0, 175210.0, 175220.0, 175230.0]","[175231.0, 175241.0, 175251.0, 175261.0, 175271.0, 175281.0, 175291.0, 175301.0, 175311.0, 175321.0, 175331.0, 175341.0, 175351.0, 175361.0, 175371.0, 175381.0, 175391.0, 175401.0, 175411.0, 175421.0, 175431.0, 175441.0, 175451.0, 175461.0, 175471.0, 175481.0, 175491.0, 175501.0, 175511.0, 175521.0, 175531.0, 175541.0, 175551.0, 175561.0, 175571.0, 175581.0, 175591.0, 175601.0, 175611.0, 175621.0, 175631.0, 175641.0, 175649]","example_experiment","17","12494","18","yes","768","4","[0, 0, 0, 0, 0, 0, 0, 0, 0, 0, 0, 0, 0, 0, 0, 0, 0, 0, 0, 0, 0, 0, 0, 0, 0, 0]","[0, 0, 0, 0, 0, 0, 0, 0, 0, 0, 0, 0, 0, 0, 0, 4, 12, 28, 48, 71, 98, 123, 148, 177, 201, 223, 246, 262, 276, 286, 293, 298, 300, 301, 301, 301, 301, 301, 301, 301, 301, 301, 301]","[0, 0, 0, 0, 0, 0, 0, 0, 0, 0, 0, 0, 0, 0, 0, 0, 0, 0, 0, 0, 0, 0, 0, 0, 0, 0]","[0, 0, 0, 0, 0, 0, 0, 0, 0, 0, 0, 0, 0, 0, 0, 0, 0, 0, 1, 2, 2, 2, 3, 4, 6, 8, 10, 12, 14, 14, 14, 14, 14, 14, 14, 14, 14, 14, 14, 14, 14, 14, 14]"
"94.7368421053","94.7368421053","699.684210526","699.684210526","black","no","prac","3","legacy","legacy","y.png","w.png","w.png","w.png","2","legacy","0","relative","1","undefined","NA","yellow","NA","undefined","1","undefined","undefined","yellow","4","0","3","0","19","0","NA","19","19","19","19","19","0","19","19","19","19","0","4","NA","NA","19","0","0","0","0","0","0","0","19","10/16/20 14:44:49","Default description","yes","simont_HV.osexp","C:\Users\admin\Desktop\임채은\!MouseTracking_final","no","sans","no","18","no","black","no","yes","768","20","None","20","None","legacy","19","19","2","C:/Users/admin/Desktop/임채은/!MouseTracking_final/subject-12.csv","legacy","1","2","2","Kafkaesque Koffka","3.2.6","0","yellow","space","NA","None","yellow","start","space","NA","NA","NA","NA","800","93855","NA","250","800","247","25153","NA","NA","NA","NA","2","legacy","1024","2","48000","-16","experiment","12","even","legacy","red","green","blue","yellow","2","26727","NA","NA","178580","1568","NA","177023","177527","177779","176774","126852","1573","178591","179591","177527","177779","NA","NA","NA","NA","176774","NA","NA","NA","NA","NA","NA","120582","176773","[177528.0, 177538.0, 177548.0, 177558.0, 177568.0, 177578.0, 177588.0, 177598.0, 177608.0, 177618.0, 177628.0, 177638.0, 177648.0, 177658.0, 177668.0, 177678.0, 177688.0, 177698.0, 177708.0, 177718.0, 177728.0, 177738.0, 177748.0, 177758.0, 177768.0, 177778.0]","[177779.0, 177789.0, 177799.0, 177809.0, 177819.0, 177829.0, 177839.0, 177849.0, 177859.0, 177869.0, 177879.0, 177889.0, 177899.0, 177909.0, 177919.0, 177929.0, 177939.0, 177949.0, 177959.0, 177969.0, 177979.0, 177989.0, 177999.0, 178009.0, 178019.0, 178029.0, 178039.0, 178049.0, 178059.0, 178069.0, 178079.0, 178089.0, 178099.0, 178109.0, 178119.0, 178129.0, 178139.0, 178149.0, 178159.0, 178169.0, 178179.0, 178189.0, 178199.0, 178209.0, 178219.0, 178229.0, 178239.0, 178249.0, 178259.0, 178267, 178277.0, 178287.0, 178297.0, 178307.0, 178317.0, 178327.0, 178337.0, 178347.0, 178357.0, 178367.0, 178377.0, 178387.0, 178397.0, 178407.0, 178417.0, 178427.0, 178437.0, 178447.0, 178457.0, 178467.0, 178477.0, 178487.0, 178497.0, 178507.0, 178517.0, 178527.0, 178537.0, 178547.0, 178557.0, 178567.0, 178577.0, 178579]","example_experiment","18","13294","19","yes","768","3","[0, 0, 0, 0, 0, 0, 0, 0, 0, 0, 0, 0, 0, 0, 0, 0, 0, 0, 0, 0, 0, 0, 0, 0, 0, 0]","[0, 0, 0, -1, -1, -1, -1, -1, -1, -1, -1, -3, -4, -5, -7, -9, -13, -18, -24, -30, -34, -38, -40, -40, -41, -41, -41, -41, -41, -41, -41, -41, -40, -38, -36, -34, -32, -30, -27, -23, -20, -17, -15, -12, -9, -7, -5, -4, -4, -4, -4, -4, -4, -4, -4, -4, -4, -4, -4, -4, -4, -4, -4, -4, -4, -3, -2, -2, -2, -2, -1, -1, -1, -1, -1, -1, -1, -1, 0, 1, 2, 2]","[0, 0, 0, 0, 0, 0, 0, 0, 0, 0, 0, 0, 0, 0, 0, 0, 0, 0, 0, 0, 0, 0, 0, 0, 0, 0]","[0, 0, 0, 4, 12, 21, 33, 44, 55, 65, 74, 81, 89, 99, 117, 137, 164, 197, 226, 250, 268, 279, 285, 289, 291, 291, 291, 291, 291, 291, 291, 289, 287, 285, 283, 282, 280, 280, 279, 279, 279, 279, 279, 280, 281, 282, 283, 284, 284, 284, 284, 284, 284, 284, 284, 284, 284, 284, 284, 284, 284, 284, 284, 284, 284, 285, 286, 286, 286, 286, 287, 288, 289, 290, 290, 290, 291, 292, 294, 297, 299, 300]"
"95","95","687.5","687.5","black","no","prac","2","legacy","legacy","w.png","w.png","r.png","w.png","1","legacy","0","relative","1","undefined","NA","red","NA","undefined","1","undefined","undefined","red","1","0","3","0","20","0","NA","20","20","20","20","20","0","20","20","20","20","0","4","NA","NA","20","0","0","0","0","0","0","0","20","10/16/20 14:44:49","Default description","yes","simont_HV.osexp","C:\Users\admin\Desktop\임채은\!MouseTracking_final","no","sans","no","18","no","black","no","yes","768","160","None","160","None","legacy","20","20","2","C:/Users/admin/Desktop/임채은/!MouseTracking_final/subject-12.csv","legacy","2","1","2","Kafkaesque Koffka","3.2.6","0","red","space","NA","None","red","start","space","NA","NA","NA","NA","456","93855","NA","250","456","330","25153","NA","NA","NA","NA","2","legacy","1024","2","48000","-16","experiment","12","even","legacy","red","green","blue","yellow","1","26727","NA","NA","181252","1568","NA","180040","180543","180795","179708","126852","1573","181271","182271","180543","180795","NA","NA","NA","NA","179708","NA","NA","NA","NA","NA","NA","120582","179707","[180544.0, 180554.0, 180564.0, 180574.0, 180584.0, 180594.0, 180604.0, 180614.0, 180624.0, 180634.0, 180644.0, 180654.0, 180664.0, 180674.0, 180684.0, 180694.0, 180704.0, 180714.0, 180724.0, 180734.0, 180744.0, 180754.0, 180764.0, 180774.0, 180784.0, 180794.0]","[180795.0, 180805.0, 180815.0, 180825.0, 180835.0, 180845.0, 180855.0, 180865.0, 180875.0, 180885.0, 180895.0, 180905.0, 180915.0, 180925.0, 180935.0, 180945.0, 180955.0, 180965.0, 180975.0, 180985.0, 180995.0, 181005.0, 181015.0, 181025.0, 181035.0, 181045.0, 181055.0, 181065.0, 181075.0, 181085.0, 181095.0, 181105.0, 181115.0, 181125.0, 181135.0, 181145.0, 181155.0, 181165.0, 181175.0, 181185.0, 181195.0, 181205.0, 181215.0, 181225.0, 181235.0, 181245.0, 181251]","example_experiment","19","13750","20","yes","768","4","[0, 0, 0, 0, 0, 0, 0, 0, 0, 0, 0, 0, 0, 0, 0, 0, 0, 0, 0, 0, 0, 0, 0, 0, 0, 0]","[0, 0, 0, 0, 0, 0, 0, 0, 0, 0, 0, 0, 0, 0, 0, 0, 0, -5, -12, -21, -31, -45, -59, -74, -94, -115, -140, -163, -190, -213, -235, -254, -271, -287, -298, -307, -310, -311, -311, -311, -311, -311, -311, -311, -311, -311, -311]","[0, 0, 0, 0, 0, 0, 0, 0, 0, 0, 0, 0, 0, 0, 0, 0, 0, 0, 0, 0, 0, 0, 0, 0, 0, 0]","[0, 0, 0, 0, 0, 0, 0, 0, 0, 0, 0, 0, 0, 0, 0, 0, 0, 0, 0, 0, 0, -1, -1, -1, -1, -1, -1, -1, 0, 0, 0, 0, 0, 0, 0, 0, 0, 0, 0, 0, 0, 0, 0, 0, 0, 0, 0]"
"95.2380952381","95.2380952381","681.904761905","681.904761905","black","no","prac","4","legacy","legacy","w.png","w.png","w.png","y.png","2","legacy","0","relative","1","undefined","NA","yellow","NA","undefined","1","undefined","undefined","yellow","4","0","3","0","21","0","NA","21","21","21","21","21","0","21","21","21","21","0","4","NA","NA","21","0","0","0","0","0","0","0","21","10/16/20 14:44:49","Default description","yes","simont_HV.osexp","C:\Users\admin\Desktop\임채은\!MouseTracking_final","no","sans","no","18","no","black","no","yes","768","170","None","170","None","legacy","21","21","1","C:/Users/admin/Desktop/임채은/!MouseTracking_final/subject-12.csv","legacy","2","2","1","Kafkaesque Koffka","3.2.6","0","yellow","space","NA","None","yellow","start","space","NA","NA","NA","NA","570","93855","NA","250","570","238","25153","NA","NA","NA","NA","2","legacy","1024","2","48000","-16","experiment","12","even","legacy","red","green","blue","yellow","2","26727","NA","NA","183950","1568","NA","182623","183127","183379","182384","126852","1573","183961","184961","183127","183379","NA","NA","NA","NA","182384","NA","NA","NA","NA","NA","NA","120582","182383","[183128.0, 183138.0, 183148.0, 183158.0, 183168.0, 183178.0, 183188.0, 183198.0, 183208.0, 183218.0, 183228.0, 183238.0, 183248.0, 183258.0, 183268.0, 183278.0, 183288.0, 183298.0, 183308.0, 183318.0, 183328.0, 183338.0, 183348.0, 183358.0, 183368.0, 183378.0]","[183379.0, 183389.0, 183399.0, 183409.0, 183419.0, 183429.0, 183439.0, 183449.0, 183459.0, 183469.0, 183479.0, 183489.0, 183499.0, 183509.0, 183519.0, 183529.0, 183539.0, 183549.0, 183559.0, 183569.0, 183579.0, 183589.0, 183599.0, 183609.0, 183619.0, 183629.0, 183639.0, 183649.0, 183659.0, 183669.0, 183679.0, 183689.0, 183699.0, 183709.0, 183719.0, 183729.0, 183739.0, 183749.0, 183759.0, 183769.0, 183779.0, 183789.0, 183799.0, 183809.0, 183819.0, 183829.0, 183839.0, 183849.0, 183859.0, 183869.0, 183879.0, 183889.0, 183899.0, 183909.0, 183919.0, 183929.0, 183939.0, 183949.0, 183949]","example_experiment","20","14320","21","yes","768","2","[0, 0, 0, 0, 0, 0, 0, 0, 0, 0, 0, 0, 0, 0, 0, 0, 0, 0, 0, 0, 0, 0, 0, 0, 0, 0]","[0, 0, 0, 0, 0, 0, 0, 0, 0, 0, 0, 0, 0, 0, 0, 0, 0, 0, 0, -1, -2, -3, -4, -4, -5, -5, -5, -5, -5, -5, -5, -5, -4, -4, -4, -3, -3, -3, -3, -3, -3, -3, -3, -3, -3, -4, -5, -5, -5, -5, -5, -5, -5, -5, -5, -5, -5, -5, -5]","[0, 0, 0, 0, 0, 0, 0, 0, 0, 0, 0, 0, 0, 0, 0, 0, 0, 0, 0, 0, 0, 0, 0, 0, 0, 0]","[0, 0, 0, 0, 0, 0, 0, 0, 0, 0, 0, 0, 0, 0, 0, 0, 0, 0, 6, 16, 23, 33, 45, 61, 78, 97, 119, 144, 169, 192, 212, 229, 239, 246, 250, 252, 254, 255, 257, 260, 264, 268, 273, 277, 283, 288, 292, 295, 296, 296, 296, 296, 296, 296, 296, 297, 297, 297, 297]"
"95.4545454545","95.4545454545","676","676","black","no","prac","4","legacy","legacy","w.png","g.png","w.png","w.png","2","legacy","0","relative","1","undefined","NA","green","NA","undefined","1","undefined","undefined","green","2","0","3","0","22","0","NA","22","22","22","22","22","0","22","22","22","22","0","4","NA","NA","22","0","0","0","0","0","0","0","22","10/16/20 14:44:49","Default description","yes","simont_HV.osexp","C:\Users\admin\Desktop\임채은\!MouseTracking_final","no","sans","no","18","no","black","no","yes","768","160","None","160","0","legacy","22","22","1","C:/Users/admin/Desktop/임채은/!MouseTracking_final/subject-12.csv","legacy","2","2","2","Kafkaesque Koffka","3.2.6","0","green","space","NA","None","green","start","space","NA","NA","NA","NA","552","93855","NA","250","552","228","25153","NA","NA","NA","NA","2","legacy","1024","2","48000","-16","experiment","12","even","legacy","red","green","blue","yellow","1","26727","NA","NA","186618","1568","NA","185309","185813","186065","185078","126852","1573","186631","187631","185813","186065","NA","NA","NA","NA","185078","NA","NA","NA","NA","NA","NA","120582","185077","[185814.0, 185824.0, 185834.0, 185844.0, 185854.0, 185864.0, 185874.0, 185884.0, 185894.0, 185904.0, 185914.0, 185924.0, 185934.0, 185944.0, 185954.0, 185964.0, 185974.0, 185984.0, 185994.0, 186004.0, 186014.0, 186024.0, 186034.0, 186044.0, 186054.0, 186064.0]","[186065.0, 186075.0, 186085.0, 186095.0, 186105.0, 186115.0, 186125.0, 186135.0, 186145.0, 186155.0, 186165.0, 186175.0, 186185.0, 186195.0, 186205.0, 186215.0, 186225.0, 186235.0, 186245.0, 186255.0, 186265.0, 186275.0, 186285.0, 186295.0, 186305.0, 186315.0, 186325.0, 186335.0, 186345.0, 186355.0, 186365.0, 186375.0, 186385.0, 186395.0, 186405.0, 186415.0, 186425.0, 186435.0, 186445.0, 186455.0, 186465.0, 186475.0, 186485.0, 186495.0, 186505.0, 186515.0, 186525.0, 186535.0, 186545.0, 186555.0, 186565.0, 186575.0, 186585.0, 186595.0, 186605.0, 186615.0, 186617]","example_experiment","21","14872","22","yes","768","4","[0, 0, 0, 0, 0, 0, 0, 0, 0, 0, 0, 0, 0, 0, 0, 0, 0, 0, 0, 0, 0, 0, 0, 0, 0, 0]","[0, 0, 0, 0, 0, 0, 0, 0, 0, 0, 0, 0, 0, 0, 0, 0, 0, 1, 4, 9, 17, 22, 28, 32, 35, 38, 39, 41, 45, 52, 62, 76, 88, 101, 113, 127, 145, 167, 189, 215, 236, 257, 276, 290, 302, 310, 313, 314, 314, 314, 314, 314, 314, 314, 314, 314, 314]","[0, 0, 0, 0, 0, 0, 0, 0, 0, 0, 0, 0, 0, 0, 0, 0, 0, 0, 0, 0, 0, 0, 0, 0, 0, 0]","[0, 0, 0, 0, 0, 0, 0, 0, 0, 0, 0, 0, 0, 0, 0, 0, 0, 0, 0, 2, 2, 2, 3, 3, 3, 1, -1, -3, -5, -6, -7, -9, -12, -14, -16, -17, -17, -17, -15, -12, -11, -9, -9, -8, -7, -7, -7, -7, -7, -7, -7, -7, -7, -7, -7, -7, -7]"
"95.652173913","95.652173913","670.130434783","670.130434783","black","no","prac","3","legacy","legacy","w.png","w.png","w.png","b.png","1","legacy","0","relative","1","undefined","NA","blue","NA","undefined","1","undefined","undefined","blue","3","0","3","0","23","0","NA","23","23","23","23","23","0","23","23","23","23","0","4","NA","NA","23","0","0","0","0","0","0","0","23","10/16/20 14:44:49","Default description","yes","simont_HV.osexp","C:\Users\admin\Desktop\임채은\!MouseTracking_final","no","sans","no","18","no","black","no","yes","768","160","None","160","None","legacy","23","23","1","C:/Users/admin/Desktop/임채은/!MouseTracking_final/subject-12.csv","legacy","1","2","2","Kafkaesque Koffka","3.2.6","0","blue","space","NA","None","blue","start","space","NA","NA","NA","NA","541","93855","NA","250","541","179","25153","NA","NA","NA","NA","2","legacy","1024","2","48000","-16","experiment","12","even","legacy","red","green","blue","yellow","2","26727","NA","NA","189228","1568","NA","187930","188434","188686","187749","126852","1573","189231","190231","188434","188686","NA","NA","NA","NA","187749","NA","NA","NA","NA","NA","NA","120582","187748","[188435.0, 188445.0, 188455.0, 188465.0, 188475.0, 188485.0, 188495.0, 188505.0, 188515.0, 188525.0, 188535.0, 188545.0, 188555.0, 188565.0, 188575.0, 188585.0, 188595.0, 188605.0, 188615.0, 188625.0, 188635.0, 188645.0, 188655.0, 188665.0, 188675.0, 188685.0]","[188686.0, 188696.0, 188706.0, 188716.0, 188726.0, 188736.0, 188746.0, 188756.0, 188766.0, 188776.0, 188786.0, 188796.0, 188806.0, 188816.0, 188826.0, 188836.0, 188846.0, 188856.0, 188866.0, 188876.0, 188886.0, 188896.0, 188906.0, 188916.0, 188926.0, 188936.0, 188946.0, 188956.0, 188966.0, 188976.0, 188986.0, 188996.0, 189006.0, 189016.0, 189026.0, 189036.0, 189046.0, 189056.0, 189066.0, 189076.0, 189086.0, 189096.0, 189106.0, 189116.0, 189126.0, 189136.0, 189146.0, 189156.0, 189166.0, 189176.0, 189186.0, 189196.0, 189206.0, 189216.0, 189226.0, 189227]","example_experiment","22","15413","23","yes","768","3","[0, 0, 0, 0, 0, 0, 0, 0, 0, 0, 0, 0, 0, 0, 0, 0, 0, 0, 0, 0, 0, 0, 0, 0, 0, 0]","[0, 0, 0, 0, 0, 0, 0, 0, 0, 0, 0, 0, 0, 0, 0, 0, 0, 0, 0, 2, 5, 8, 9, 9, 9, 8, 6, 5, 5, 5, 5, 5, 5, 6, 6, 6, 6, 6, 5, 5, 5, 5, 5, 5, 5, 5, 5, 5, 5, 5, 5, 4, 4, 4, 4, 4]","[0, 0, 0, 0, 0, 0, 0, 0, 0, 0, 0, 0, 0, 0, 0, 0, 0, 0, 0, 0, 0, 0, 0, 0, 0, 0]","[0, 0, 0, 0, 0, 0, 0, 0, 0, 0, 0, 0, 0, 0, 0, 0, 0, -5, -14, -29, -46, -67, -88, -109, -128, -143, -158, -170, -183, -193, -204, -214, -223, -232, -240, -248, -255, -262, -269, -274, -279, -281, -282, -283, -283, -283, -283, -284, -287, -289, -292, -294, -294, -294, -294, -294]"
"95.8333333333","95.8333333333","659.291666667","659.291666667","black","no","prac","1","legacy","legacy","w.png","r.png","w.png","w.png","1","legacy","0","relative","1","undefined","NA","red","NA","undefined","1","undefined","undefined","red","1","0","3","0","24","0","NA","24","24","24","24","24","0","24","24","24","24","0","4","NA","NA","24","0","0","0","0","0","0","0","24","10/16/20 14:44:49","Default description","yes","simont_HV.osexp","C:\Users\admin\Desktop\임채은\!MouseTracking_final","no","sans","no","18","no","black","no","yes","768","20","None","20","None","legacy","24","24","1","C:/Users/admin/Desktop/임채은/!MouseTracking_final/subject-12.csv","legacy","1","1","2","Kafkaesque Koffka","3.2.6","0","red","space","NA","None","red","start","space","NA","NA","NA","NA","410","93855","NA","250","410","241","25153","NA","NA","NA","NA","2","legacy","1024","2","48000","-16","experiment","12","even","legacy","red","green","blue","yellow","1","26727","NA","NA","191778","1568","NA","190611","191115","191367","190368","126852","1573","191791","192791","191115","191367","NA","NA","NA","NA","190368","NA","NA","NA","NA","NA","NA","120582","190367","[191116.0, 191126.0, 191136.0, 191146.0, 191156.0, 191166.0, 191176.0, 191186.0, 191196.0, 191206.0, 191216.0, 191226.0, 191236.0, 191246.0, 191256.0, 191266.0, 191276.0, 191286.0, 191296.0, 191306.0, 191316.0, 191326.0, 191336.0, 191346.0, 191356.0, 191366.0]","[191367.0, 191377.0, 191387.0, 191397.0, 191407.0, 191417.0, 191427.0, 191437.0, 191447.0, 191457.0, 191467.0, 191477.0, 191487.0, 191497.0, 191507.0, 191517.0, 191527.0, 191537.0, 191547.0, 191557.0, 191567.0, 191577.0, 191587.0, 191597.0, 191607.0, 191617.0, 191627.0, 191637.0, 191647.0, 191657.0, 191667.0, 191677.0, 191687.0, 191697.0, 191707.0, 191717.0, 191727.0, 191737.0, 191747.0, 191757.0, 191767.0, 191777.0, 191777]","example_experiment","23","15823","24","yes","768","3","[0, 0, 0, 0, 0, 0, 0, 0, 0, 0, 0, 0, 0, 0, 0, 0, 0, 0, 0, 0, 0, 0, 0, 0, 0, 0]","[0, 0, 0, -1, -5, -11, -17, -25, -33, -41, -53, -64, -78, -93, -110, -128, -149, -167, -187, -203, -216, -227, -235, -243, -250, -256, -262, -269, -276, -282, -288, -292, -296, -301, -304, -308, -310, -313, -313, -313, -313, -313, -313]","[0, 0, 0, 0, 0, 0, 0, 0, 0, 0, 0, 0, 0, 0, 0, 0, 0, 0, 0, 0, 0, 0, 0, 0, 0, 0]","[0, 0, 0, 0, 0, 0, -1, -1, -1, -1, -1, -2, -2, -2, -2, -2, -2, -2, -2, -2, -2, -2, -2, -2, -2, -2, -2, -2, -2, -2, -2, -2, -2, -2, -2, -2, -3, -3, -3, -3, -3, -3, -3]"
"96","96","667.04","667.04","black","no","prac","2","legacy","legacy","w.png","w.png","w.png","y.png","2","legacy","0","relative","1","undefined","NA","yellow","NA","undefined","1","undefined","undefined","yellow","4","0","3","0","25","0","NA","25","25","25","25","25","0","25","25","25","25","0","4","NA","NA","25","0","0","0","0","0","0","0","25","10/16/20 14:44:49","Default description","yes","simont_HV.osexp","C:\Users\admin\Desktop\임채은\!MouseTracking_final","no","sans","no","18","no","black","no","yes","768","30","None","30","None","legacy","25","25","1","C:/Users/admin/Desktop/임채은/!MouseTracking_final/subject-12.csv","legacy","2","1","1","Kafkaesque Koffka","3.2.6","0","yellow","space","NA","None","yellow","start","space","NA","NA","NA","NA","853","93855","NA","250","853","214","25153","NA","NA","NA","NA","2","legacy","1024","2","48000","-16","experiment","12","even","legacy","red","green","blue","yellow","2","26727","NA","NA","194732","1568","NA","193122","193626","193878","192906","126852","1573","194741","195741","193626","193878","NA","NA","NA","NA","192906","NA","NA","NA","NA","NA","NA","120582","192905","[193627.0, 193637.0, 193647.0, 193657.0, 193667.0, 193677.0, 193687.0, 193697.0, 193707.0, 193717.0, 193727.0, 193737.0, 193747.0, 193757.0, 193767.0, 193777.0, 193787.0, 193797.0, 193807.0, 193817.0, 193827.0, 193837.0, 193847.0, 193857.0, 193867.0, 193877.0]","[193878.0, 193888.0, 193898.0, 193908.0, 193918.0, 193928.0, 193938.0, 193948.0, 193958.0, 193968.0, 193978.0, 193988.0, 193998.0, 194008.0, 194018.0, 194028.0, 194038.0, 194048.0, 194058.0, 194068.0, 194078.0, 194088.0, 194098.0, 194108.0, 194118.0, 194128.0, 194138.0, 194148.0, 194158.0, 194168.0, 194178.0, 194188.0, 194198.0, 194208.0, 194218.0, 194228.0, 194238.0, 194248.0, 194258.0, 194268.0, 194278.0, 194288.0, 194298.0, 194308.0, 194318.0, 194328.0, 194338.0, 194348.0, 194358.0, 194368.0, 194378.0, 194386, 194396.0, 194406.0, 194416.0, 194426.0, 194436.0, 194446.0, 194456.0, 194466.0, 194476.0, 194486.0, 194496.0, 194506.0, 194516.0, 194526.0, 194536.0, 194546.0, 194556.0, 194566.0, 194576.0, 194586.0, 194596.0, 194606.0, 194616.0, 194626.0, 194636.0, 194646.0, 194656.0, 194666.0, 194676.0, 194686.0, 194696.0, 194706.0, 194716.0, 194726.0, 194731]","example_experiment","24","16676","25","yes","768","2","[0, 0, 0, 0, 0, 0, 0, 0, 0, 0, 0, 0, 0, 0, 0, 0, 0, 0, 0, 0, 0, 0, 0, 0, 0, 0]","[0, 0, 0, 0, 0, 1, 1, 2, 3, 3, 3, 3, 3, 3, 3, 2, 2, 1, 1, 0, -1, -3, -5, -7, -9, -10, -10, -10, -10, -10, -8, -6, -4, -3, -2, -1, -1, -1, -1, -1, -1, -1, -1, -1, -1, -1, -1, -1, -1, -1, -1, -1, -1, -1, -1, -1, -1, -1, -1, -1, -1, -1, -1, -1, -1, -1, -1, -1, -1, -1, -1, -1, -1, -1, -1, -1, -1, -1, -1, -1, -1, 0, 0, 0, 0, 0, 0]","[0, 0, 0, 0, 0, 0, 0, 0, 0, 0, 0, 0, 0, 0, 0, 0, 0, 0, 0, 0, 0, 0, 0, 0, 0, 0]","[0, 0, 0, 0, -3, -9, -15, -19, -22, -22, -22, -22, -22, -22, -19, -14, -5, 6, 22, 40, 58, 78, 96, 115, 134, 154, 170, 188, 201, 213, 225, 235, 243, 250, 256, 260, 263, 265, 266, 266, 266, 266, 266, 269, 273, 276, 280, 283, 284, 284, 284, 284, 284, 284, 284, 284, 284, 284, 284, 284, 284, 284, 284, 284, 284, 284, 284, 284, 284, 284, 284, 284, 284, 284, 284, 284, 284, 284, 284, 285, 288, 290, 290, 290, 290, 290, 290]"
"96.1538461538","96.1538461538","667.384615385","667.384615385","black","no","prac","3","legacy","legacy","w.png","w.png","g.png","w.png","2","legacy","0","relative","1","undefined","NA","green","NA","undefined","1","undefined","undefined","green","2","0","3","0","26","0","NA","26","26","26","26","26","0","26","26","26","26","0","4","NA","NA","26","0","0","0","0","0","0","0","26","10/16/20 14:44:49","Default description","yes","simont_HV.osexp","C:\Users\admin\Desktop\임채은\!MouseTracking_final","no","sans","no","18","no","black","no","yes","768","260","None","260","100","legacy","26","26","2","C:/Users/admin/Desktop/임채은/!MouseTracking_final/subject-12.csv","legacy","1","2","1","Kafkaesque Koffka","3.2.6","0","green","space","NA","None","green","start","space","NA","NA","NA","NA","676","93855","NA","250","676","315","25153","NA","NA","NA","NA","2","legacy","1024","2","48000","-16","experiment","12","even","legacy","red","green","blue","yellow","1","26727","NA","NA","197609","1568","NA","196177","196680","196932","195860","126852","1573","197621","198621","196680","196932","NA","NA","NA","NA","195860","NA","NA","NA","NA","NA","NA","120582","195859","[196681.0, 196691.0, 196701.0, 196711.0, 196721.0, 196731.0, 196741.0, 196751.0, 196761.0, 196771.0, 196781.0, 196791.0, 196801.0, 196811.0, 196821.0, 196831.0, 196841.0, 196851.0, 196861.0, 196871.0, 196881.0, 196891.0, 196901.0, 196911.0, 196921.0, 196931.0]","[196932.0, 196942.0, 196952.0, 196962.0, 196972.0, 196982.0, 196992.0, 197002.0, 197012.0, 197022.0, 197032.0, 197042.0, 197052.0, 197062.0, 197072.0, 197082.0, 197092.0, 197102.0, 197112.0, 197122.0, 197132.0, 197142.0, 197152.0, 197162.0, 197172.0, 197182.0, 197192.0, 197202.0, 197212.0, 197222.0, 197232.0, 197242.0, 197252.0, 197262.0, 197272.0, 197282.0, 197292.0, 197302.0, 197312.0, 197322.0, 197332.0, 197342.0, 197352.0, 197362.0, 197372.0, 197382.0, 197392.0, 197402.0, 197412.0, 197422.0, 197432.0, 197442.0, 197452.0, 197462.0, 197472.0, 197482.0, 197492.0, 197502.0, 197512.0, 197522.0, 197532.0, 197542.0, 197552.0, 197562.0, 197572.0, 197582.0, 197592.0, 197602.0, 197608]","example_experiment","25","17352","26","yes","768","1","[0, 0, 0, 0, 0, 0, 0, 0, 0, 0, 0, 0, 0, 0, 0, 0, 0, 0, 0, 0, 0, 0, 0, 0, 0, 0]","[0, 0, 0, 0, 0, 0, 0, 0, 0, 0, 0, 0, 0, 0, 0, 0, 0, 0, 0, 0, 0, 0, 0, 0, 0, 0, 0, 2, 7, 13, 23, 40, 58, 79, 101, 122, 143, 165, 183, 197, 211, 221, 231, 240, 246, 250, 253, 254, 256, 257, 259, 261, 262, 264, 265, 267, 269, 275, 281, 286, 291, 293, 295, 296, 296, 296, 296, 296, 296]","[0, 0, 0, 0, 0, 0, 0, 0, 0, 0, 0, 0, 0, 0, 0, 0, 0, 0, 0, 0, 0, 0, 0, 0, 0, 0]","[0, 0, 0, 0, 0, 0, 0, 0, 0, 0, 0, 0, 0, 0, 0, 0, 0, 0, 0, 0, 0, 0, 0, 0, 0, 0, 0, 1, 3, 5, 7, 9, 9, 9, 9, 6, 2, -1, -5, -7, -9, -9, -9, -9, -9, -9, -9, -9, -10, -10, -11, -12, -14, -15, -16, -16, -16, -15, -14, -12, -11, -10, -9, -9, -9, -9, -9, -9, -9]"
"96.2962962963","96.2962962963","664.111111111","664.111111111","black","no","prac","2","legacy","legacy","b.png","w.png","w.png","w.png","1","legacy","0","relative","1","undefined","NA","blue","NA","undefined","1","undefined","undefined","blue","3","0","3","0","27","0","NA","27","27","27","27","27","0","27","27","27","27","0","4","NA","NA","27","0","0","0","0","0","0","0","27","10/16/20 14:44:49","Default description","yes","simont_HV.osexp","C:\Users\admin\Desktop\임채은\!MouseTracking_final","no","sans","no","18","no","black","no","yes","768","50","None","50","None","legacy","27","27","2","C:/Users/admin/Desktop/임채은/!MouseTracking_final/subject-12.csv","legacy","2","1","2","Kafkaesque Koffka","3.2.6","0","blue","space","NA","None","blue","start","space","NA","NA","NA","NA","579","93855","NA","250","579","201","25153","NA","NA","NA","NA","2","legacy","1024","2","48000","-16","experiment","12","even","legacy","red","green","blue","yellow","2","26727","NA","NA","200262","1568","NA","198926","199430","199682","198724","126852","1573","200281","201281","199430","199682","NA","NA","NA","NA","198724","NA","NA","NA","NA","NA","NA","120582","198723","[199431.0, 199441.0, 199451.0, 199461.0, 199471.0, 199481.0, 199491.0, 199501.0, 199511.0, 199521.0, 199531.0, 199541.0, 199551.0, 199561.0, 199571.0, 199581.0, 199591.0, 199601.0, 199611.0, 199621.0, 199631.0, 199641.0, 199651.0, 199661.0, 199671.0, 199681.0]","[199682.0, 199692.0, 199702.0, 199712.0, 199722.0, 199732.0, 199742.0, 199752.0, 199762.0, 199772.0, 199782.0, 199792.0, 199802.0, 199812.0, 199822.0, 199832.0, 199842.0, 199852.0, 199862.0, 199872.0, 199882.0, 199892.0, 199902.0, 199912.0, 199922.0, 199932.0, 199942.0, 199952.0, 199962.0, 199972.0, 199982.0, 199992.0, 200002.0, 200012.0, 200022.0, 200032.0, 200042.0, 200052.0, 200062.0, 200072.0, 200082.0, 200092.0, 200102.0, 200112.0, 200122.0, 200132.0, 200142.0, 200152.0, 200162.0, 200172.0, 200182.0, 200192.0, 200202.0, 200212.0, 200222.0, 200232.0, 200242.0, 200252.0, 200261]","example_experiment","26","17931","27","yes","768","4","[0, 0, 0, 0, 0, 0, 0, 0, 0, 0, 0, 0, 0, 0, 0, 0, 0, 0, 0, 0, 0, 0, 0, 0, 0, 0]","[0, 0, 0, 0, 0, 0, 0, -1, -2, -2, -2, -2, -2, -2, -2, -1, 1, 3, 5, 5, 5, 5, 5, 4, 2, 1, -1, -1, -1, -1, -2, -3, -3, -4, -4, -4, -4, -4, -4, -4, -4, -4, -4, -4, -4, -4, -4, -4, -4, -4, -4, -4, -4, -4, -4, -4, -4, -4, -4]","[0, 0, 0, 0, 0, 0, 0, 0, 0, 0, 0, 0, 0, 0, 0, 0, 0, 0, 0, 0, 0, 0, 0, 0, 0, 0]","[0, 0, 0, 0, 0, 0, 1, 5, 8, 8, 8, 8, 8, 7, 3, -5, -17, -33, -56, -80, -103, -126, -145, -162, -178, -196, -211, -229, -246, -260, -272, -281, -288, -293, -296, -298, -300, -300, -300, -300, -300, -300, -300, -301, -301, -301, -301, -301, -301, -301, -301, -301, -301, -301, -301, -301, -301, -301, -301]"
"96.4285714286","96.4285714286","656.107142857","656.107142857","black","no","prac","4","legacy","legacy","b.png","w.png","w.png","w.png","1","legacy","0","relative","1","undefined","NA","blue","NA","undefined","1","undefined","undefined","blue","3","0","3","0","28","0","NA","28","28","28","28","28","0","28","28","28","28","0","4","NA","NA","28","0","0","0","0","0","0","0","28","10/16/20 14:44:49","Default description","yes","simont_HV.osexp","C:\Users\admin\Desktop\임채은\!MouseTracking_final","no","sans","no","18","no","black","no","yes","768","130","None","130","None","legacy","28","28","2","C:/Users/admin/Desktop/임채은/!MouseTracking_final/subject-12.csv","legacy","2","2","2","Kafkaesque Koffka","3.2.6","0","blue","space","NA","None","blue","start","space","NA","NA","NA","NA","440","93855","NA","250","440","289","25153","NA","NA","NA","NA","2","legacy","1024","2","48000","-16","experiment","12","even","legacy","red","green","blue","yellow","2","26727","NA","NA","202885","1568","NA","201688","202192","202444","201398","126852","1573","202911","203911","202192","202444","NA","NA","NA","NA","201398","NA","NA","NA","NA","NA","NA","120582","201396","[202193.0, 202203.0, 202213.0, 202223.0, 202233.0, 202243.0, 202253.0, 202263.0, 202273.0, 202283.0, 202293.0, 202303.0, 202313.0, 202323.0, 202333.0, 202343.0, 202353.0, 202363.0, 202373.0, 202383.0, 202393.0, 202403.0, 202413.0, 202423.0, 202433.0, 202443.0]","[202444.0, 202454.0, 202464.0, 202474.0, 202484.0, 202494.0, 202504.0, 202514.0, 202524.0, 202534.0, 202544.0, 202554.0, 202564.0, 202574.0, 202584.0, 202594.0, 202604.0, 202614.0, 202624.0, 202634.0, 202644.0, 202654.0, 202664.0, 202674.0, 202684.0, 202694.0, 202704.0, 202714.0, 202724.0, 202734.0, 202744.0, 202754.0, 202764.0, 202774.0, 202784.0, 202794.0, 202804.0, 202814.0, 202824.0, 202834.0, 202844.0, 202854.0, 202864.0, 202874.0, 202884.0, 202884]","example_experiment","27","18371","28","yes","768","4","[0, 0, 0, 0, 0, 0, 0, 0, 0, 0, 0, 0, 0, 0, 0, 0, 0, 0, 0, 0, 0, 0, 0, 0, 0, 0]","[0, 0, 0, 0, 0, 0, 0, 0, 0, 0, 0, 0, 0, 0, 0, 3, 7, 12, 15, 15, 15, 14, 12, 9, 8, 8, 7, 7, 7, 7, 7, 8, 8, 8, 8, 8, 8, 8, 8, 8, 8, 8, 8, 8, 8, 8]","[0, 0, 0, 0, 0, 0, 0, 0, 0, 0, 0, 0, 0, 0, 0, 0, 0, 0, 0, 0, 0, 0, 0, 0, 0, 0]","[0, 0, 0, 0, 0, 0, 0, 0, 0, 0, 0, 0, 0, 0, -6, -18, -36, -58, -80, -102, -122, -144, -167, -193, -217, -240, -261, -278, -290, -299, -306, -311, -315, -318, -319, -319, -319, -319, -319, -319, -319, -319, -319, -319, -319, -319]"
"96.5517241379","96.5517241379","654.965517241","654.965517241","black","no","prac","3","legacy","legacy","w.png","w.png","g.png","w.png","2","legacy","0","relative","1","undefined","NA","green","NA","undefined","1","undefined","undefined","green","2","0","3","0","29","0","NA","29","29","29","29","29","0","29","29","29","29","0","4","NA","NA","29","0","0","0","0","0","0","0","29","10/16/20 14:44:49","Default description","yes","simont_HV.osexp","C:\Users\admin\Desktop\임채은\!MouseTracking_final","no","sans","no","18","no","black","no","yes","768","160","None","160","None","legacy","29","29","2","C:/Users/admin/Desktop/임채은/!MouseTracking_final/subject-12.csv","legacy","1","2","2","Kafkaesque Koffka","3.2.6","0","green","space","NA","None","green","start","space","NA","NA","NA","NA","623","93855","NA","250","623","197","25153","NA","NA","NA","NA","2","legacy","1024","2","48000","-16","experiment","12","even","legacy","red","green","blue","yellow","1","26727","NA","NA","205616","1568","NA","204235","204740","204992","204036","126852","1573","205621","206621","204740","204992","NA","NA","NA","NA","204036","NA","NA","NA","NA","NA","NA","120582","204035","[204741.0, 204751.0, 204761.0, 204771.0, 204781.0, 204791.0, 204801.0, 204811.0, 204821.0, 204831.0, 204841.0, 204851.0, 204861.0, 204871.0, 204881.0, 204891.0, 204901.0, 204911.0, 204921.0, 204931.0, 204941.0, 204951.0, 204961.0, 204971.0, 204981.0, 204991.0]","[204992.0, 205002.0, 205012.0, 205022.0, 205032.0, 205042.0, 205052.0, 205062.0, 205072.0, 205082.0, 205092.0, 205102.0, 205112.0, 205122.0, 205132.0, 205142.0, 205152.0, 205162.0, 205172.0, 205182.0, 205192.0, 205202.0, 205212.0, 205222.0, 205232.0, 205242.0, 205252.0, 205262.0, 205272.0, 205282.0, 205292.0, 205302.0, 205312.0, 205322.0, 205332.0, 205342.0, 205352.0, 205362.0, 205372.0, 205382.0, 205392.0, 205402.0, 205412.0, 205422.0, 205432.0, 205442.0, 205452.0, 205462.0, 205472.0, 205482.0, 205492.0, 205502.0, 205512.0, 205522.0, 205532.0, 205542.0, 205552.0, 205562.0, 205572.0, 205582.0, 205592.0, 205602.0, 205612.0, 205615]","example_experiment","28","18994","29","yes","768","3","[0, 0, 0, 0, 0, 0, 0, 0, 0, 0, 0, 0, 0, 0, 0, 0, 0, 0, 0, 0, 0, 0, 0, 0, 0, 0]","[0, 0, 0, 0, 0, 0, 0, 0, 0, 0, 0, 0, 0, 0, 0, 0, 0, 3, 13, 27, 44, 62, 82, 102, 124, 148, 169, 185, 200, 211, 217, 223, 227, 231, 234, 236, 237, 238, 238, 241, 244, 246, 248, 250, 251, 252, 254, 258, 262, 265, 267, 269, 270, 271, 274, 279, 283, 286, 288, 290, 291, 291, 291, 291]","[0, 0, 0, 0, 0, 0, 0, 0, 0, 0, 0, 0, 0, 0, 0, 0, 0, 0, 0, 0, 0, 0, 0, 0, 0, 0]","[0, 0, 0, 0, 0, 0, 0, 0, 0, 0, 0, 0, 0, 0, 0, 0, 0, 0, 0, 0, 0, 0, 0, 0, 0, 0, 0, 0, 0, 0, -1, -1, 0, 1, 2, 4, 4, 4, 4, 4, 3, 1, -1, -2, -2, -2, -2, -2, -2, -2, -2, -2, -3, -3, -3, -3, -3, -3, -3, -4, -4, -4, -4, -4]"
"96.6666666667","96.6666666667","648.8","648.8","black","no","block1","0","legacy","legacy","w.png","r.png","w.png","w.png","1","legacy","0","relative","1","undefined","NA","red","NA","undefined","1","undefined","undefined","red","1","0","3","0","30","0","NA","30","30","30","30","30","0","30","30","30","30","0","4","NA","NA","30","0","0","0","0","0","0","0","30","10/16/20 14:44:49","Default description","yes","simont_HV.osexp","C:\Users\admin\Desktop\임채은\!MouseTracking_final","no","sans","no","18","no","black","no","yes","768","20","None","20","140","legacy","0","29","1","C:/Users/admin/Desktop/임채은/!MouseTracking_final/subject-12.csv","legacy","1","0","0","Kafkaesque Koffka","3.2.6","0","red","space","NA","None","red","start","space","space","NA","NA","NA","470","93855","NA","250","470","1025","25153","53582","NA","NA","NA","2","legacy","1024","2","48000","-16","experiment","12","even","legacy","red","green","blue","yellow","1","26727","NA","NA","262566","1568","NA","261338","261843","262095","260311","126852","1573","262581","263581","261843","262095","206667","NA","NA","NA","260311","260249","NA","NA","NA","NA","NA","120582","260310","[261844.0, 261854.0, 261864.0, 261874.0, 261884.0, 261894.0, 261904.0, 261914.0, 261924.0, 261934.0, 261944.0, 261954.0, 261964.0, 261974.0, 261984.0, 261994.0, 262004.0, 262014.0, 262024.0, 262034.0, 262044.0, 262054.0, 262064.0, 262074.0, 262084.0, 262094.0]","[262095.0, 262105.0, 262115.0, 262125.0, 262135.0, 262145.0, 262155.0, 262165.0, 262175.0, 262185.0, 262195.0, 262205.0, 262215.0, 262225.0, 262235.0, 262245.0, 262255.0, 262265.0, 262275.0, 262285.0, 262295.0, 262305.0, 262315.0, 262325.0, 262335.0, 262345.0, 262355.0, 262365.0, 262375.0, 262385.0, 262395.0, 262405.0, 262415.0, 262425.0, 262435.0, 262445.0, 262455.0, 262465.0, 262475.0, 262485.0, 262495.0, 262505.0, 262515.0, 262525.0, 262535.0, 262545.0, 262555.0, 262565.0, 262565]","example_experiment","29","19464","30","yes","768","0","[0, 0, 0, 0, 0, 0, 0, 0, 0, 0, 0, 0, 0, 0, 0, 0, 0, 0, 0, 0, 0, 0, 0, 0, 0, 0]","[0, 0, 0, -3, -7, -14, -24, -34, -47, -62, -76, -93, -109, -123, -136, -147, -157, -167, -174, -180, -184, -186, -188, -191, -194, -197, -202, -206, -211, -216, -220, -226, -231, -237, -243, -249, -256, -263, -271, -278, -284, -287, -289, -291, -291, -292, -292, -292, -292]","[0, 0, 0, 0, 0, 0, 0, 0, 0, 0, 0, 0, 0, 0, 0, 0, 0, 0, 0, 0, 0, 0, 0, 0, 0, 0]","[0, 0, 0, 0, 0, 0, 0, 0, -1, -2, -3, -3, -3, -3, -3, -3, -3, -3, -3, -3, -3, -3, -2, -1, 0, 0, 1, 1, 1, 1, 2, 3, 4, 5, 7, 7, 7, 7, 7, 7, 6, 6, 6, 6, 5, 5, 5, 5, 5]"
"96.7741935484","96.7741935484","654.483870968","654.483870968","black","no","block1","0","legacy","legacy","w.png","w.png","w.png","b.png","1","legacy","0","relative","1","undefined","NA","blue","NA","undefined","1","undefined","undefined","blue","3","0","3","0","31","0","NA","31","31","31","31","31","0","31","31","31","31","0","4","NA","NA","31","0","0","0","0","0","0","0","31","10/16/20 14:44:49","Default description","yes","simont_HV.osexp","C:\Users\admin\Desktop\임채은\!MouseTracking_final","no","sans","no","18","no","black","no","yes","768","30","None","30","70","legacy","1","29","1","C:/Users/admin/Desktop/임채은/!MouseTracking_final/subject-12.csv","legacy","1","1","0","Kafkaesque Koffka","3.2.6","0","blue","space","NA","None","blue","start","space","space","NA","NA","NA","825","93855","NA","250","825","438","25153","53582","NA","NA","NA","2","legacy","1024","2","48000","-16","experiment","12","even","legacy","red","green","blue","yellow","2","26727","NA","NA","265705","1568","NA","264125","264628","264879","263686","126852","1573","265711","266711","264628","264879","206667","NA","NA","NA","263686","260249","NA","NA","NA","NA","NA","120582","263685","[264628.0, 264638.0, 264648.0, 264658.0, 264668.0, 264678.0, 264688.0, 264698.0, 264708.0, 264718.0, 264728.0, 264738.0, 264748.0, 264758.0, 264768.0, 264778.0, 264788.0, 264798.0, 264808.0, 264818.0, 264828.0, 264838.0, 264848.0, 264858.0, 264868.0, 264878.0]","[264879.0, 264889.0, 264899.0, 264909.0, 264919.0, 264929.0, 264939.0, 264949.0, 264959.0, 264969.0, 264979.0, 264989.0, 264999.0, 265009.0, 265019.0, 265029.0, 265039.0, 265049.0, 265059.0, 265069.0, 265079.0, 265089.0, 265099.0, 265109.0, 265119.0, 265129.0, 265139.0, 265149.0, 265159.0, 265169.0, 265179.0, 265189.0, 265199.0, 265209.0, 265219.0, 265229.0, 265239.0, 265249.0, 265259.0, 265269.0, 265279.0, 265289.0, 265299.0, 265309.0, 265319.0, 265329.0, 265339.0, 265349.0, 265350, 265360.0, 265370.0, 265380.0, 265390.0, 265400.0, 265410.0, 265420.0, 265430.0, 265440.0, 265450.0, 265460.0, 265470.0, 265480.0, 265490.0, 265500.0, 265510.0, 265520.0, 265530.0, 265540.0, 265550.0, 265560.0, 265570.0, 265580.0, 265590.0, 265600.0, 265610.0, 265620.0, 265630.0, 265640.0, 265650.0, 265660.0, 265670.0, 265680.0, 265690.0, 265700.0, 265704]","example_experiment","30","20289","31","yes","768","0","[0, 0, 0, 0, 0, 0, 0, 0, 0, 0, 0, 0, 0, 0, 0, 0, 0, 0, 0, 0, 0, 0, 0, 0, 0, 0]","[0, 0, 0, 0, 0, 0, 0, 0, 0, 0, 0, 0, 0, 0, 0, 0, 0, 0, -2, -3, -4, -5, -5, -5, -5, -5, -4, -3, -1, 1, 2, 3, 3, 4, 4, 4, 4, 4, 3, 3, 3, 3, 3, 3, 3, 3, 3, 3, 3, 3, 3, 3, 3, 3, 3, 3, 3, 3, 3, 3, 3, 3, 3, 3, 3, 3, 3, 3, 3, 3, 3, 3, 3, 3, 3, 3, 4, 4, 5, 6, 6, 6, 6, 6, 6]","[0, 0, 0, 0, 0, 0, 0, 0, 0, 0, 0, 0, 0, 0, 0, 0, 0, 0, 0, 0, 0, 0, 0, 0, 0, 0]","[0, 0, 0, 0, -3, -5, -7, -8, -8, -8, -8, -8, -8, -8, -8, -8, -12, -21, -32, -43, -54, -66, -82, -105, -128, -154, -174, -194, -210, -223, -234, -242, -249, -255, -262, -267, -274, -279, -282, -283, -283, -283, -283, -283, -283, -283, -283, -283, -283, -283, -283, -283, -283, -283, -283, -283, -283, -283, -283, -283, -283, -283, -283, -283, -283, -283, -283, -283, -283, -283, -283, -283, -284, -287, -288, -291, -293, -295, -297, -298, -298, -298, -298, -298, -298]"
"96.875","96.875","646.78125","646.78125","black","no","block1","1","legacy","legacy","w.png","r.png","w.png","w.png","1","legacy","0","relative","1","undefined","NA","red","NA","undefined","1","undefined","undefined","red","1","0","3","0","32","0","NA","32","32","32","32","32","0","32","32","32","32","0","4","NA","NA","32","0","0","0","0","0","0","0","32","10/16/20 14:44:49","Default description","yes","simont_HV.osexp","C:\Users\admin\Desktop\임채은\!MouseTracking_final","no","sans","no","18","no","black","no","yes","768","0","None","0","None","legacy","2","29","1","C:/Users/admin/Desktop/임채은/!MouseTracking_final/subject-12.csv","legacy","1","1","1","Kafkaesque Koffka","3.2.6","0","red","space","NA","None","red","start","space","space","NA","NA","NA","408","93855","NA","250","408","229","25153","53582","NA","NA","NA","2","legacy","1024","2","48000","-16","experiment","12","even","legacy","red","green","blue","yellow","1","26727","NA","NA","268224","1568","NA","267058","267563","267815","266828","126852","1573","268231","269231","267563","267815","206667","NA","NA","NA","266828","260249","NA","NA","NA","NA","NA","120582","266827","[267564.0, 267574.0, 267584.0, 267594.0, 267604.0, 267614.0, 267624.0, 267634.0, 267644.0, 267654.0, 267664.0, 267674.0, 267684.0, 267694.0, 267704.0, 267714.0, 267724.0, 267734.0, 267744.0, 267754.0, 267764.0, 267774.0, 267784.0, 267794.0, 267804.0, 267814.0]","[267815.0, 267825.0, 267835.0, 267845.0, 267855.0, 267865.0, 267875.0, 267885.0, 267895.0, 267905.0, 267915.0, 267925.0, 267935.0, 267945.0, 267955.0, 267965.0, 267975.0, 267985.0, 267995.0, 268005.0, 268015.0, 268025.0, 268035.0, 268045.0, 268055.0, 268065.0, 268075.0, 268085.0, 268095.0, 268105.0, 268115.0, 268125.0, 268135.0, 268145.0, 268155.0, 268165.0, 268175.0, 268185.0, 268195.0, 268205.0, 268215.0, 268223]","example_experiment","31","20697","32","yes","768","1","[0, 0, 0, 0, 0, 0, 0, 0, 0, 0, 0, 0, 0, 0, 0, 0, 0, 0, 0, 0, 0, 0, 0, 0, 0, 0]","[0, -1, -7, -16, -30, -47, -67, -90, -116, -146, -176, -205, -231, -254, -274, -292, -305, -314, -320, -321, -321, -321, -321, -321, -321, -321, -321, -321, -321, -321, -321, -319, -317, -315, -314, -312, -310, -305, -301, -297, -295, -294]","[0, 0, 0, 0, 0, 0, 0, 0, 0, 0, 0, 0, 0, 0, 0, 0, 0, 0, 0, 0, 0, 0, 0, 0, 0, 0]","[0, 0, 0, 0, 0, 2, 3, 4, 5, 7, 9, 13, 15, 17, 18, 18, 18, 18, 18, 18, 18, 18, 18, 18, 18, 18, 18, 18, 18, 18, 18, 16, 14, 12, 11, 10, 8, 7, 7, 5, 5, 5]"
"96.9696969697","96.9696969697","645.636363636","645.636363636","black","no","block1","2","legacy","legacy","w.png","w.png","w.png","y.png","2","legacy","0","relative","1","undefined","NA","yellow","NA","undefined","1","undefined","undefined","yellow","4","0","3","0","33","0","NA","33","33","33","33","33","0","33","33","33","33","0","4","NA","NA","33","0","0","0","0","0","0","0","33","10/16/20 14:44:49","Default description","yes","simont_HV.osexp","C:\Users\admin\Desktop\임채은\!MouseTracking_final","no","sans","no","18","no","black","no","yes","768","10","None","10","None","legacy","3","29","1","C:/Users/admin/Desktop/임채은/!MouseTracking_final/subject-12.csv","legacy","2","1","1","Kafkaesque Koffka","3.2.6","0","yellow","space","NA","None","yellow","start","space","space","NA","NA","NA","609","93855","NA","250","609","231","25153","53582","NA","NA","NA","2","legacy","1024","2","48000","-16","experiment","12","even","legacy","red","green","blue","yellow","2","26727","NA","NA","270947","1568","NA","269581","270085","270337","269348","126852","1573","270961","271961","270085","270337","206667","NA","NA","NA","269348","260249","NA","NA","NA","NA","NA","120582","269347","[270086.0, 270096.0, 270106.0, 270116.0, 270126.0, 270136.0, 270146.0, 270156.0, 270166.0, 270176.0, 270186.0, 270196.0, 270206.0, 270216.0, 270226.0, 270236.0, 270246.0, 270256.0, 270266.0, 270276.0, 270286.0, 270296.0, 270306.0, 270316.0, 270326.0, 270336.0]","[270337.0, 270347.0, 270357.0, 270367.0, 270377.0, 270387.0, 270397.0, 270407.0, 270417.0, 270427.0, 270437.0, 270447.0, 270457.0, 270467.0, 270477.0, 270487.0, 270497.0, 270507.0, 270517.0, 270527.0, 270537.0, 270547.0, 270557.0, 270567.0, 270577.0, 270587.0, 270597.0, 270607.0, 270617.0, 270627.0, 270637.0, 270647.0, 270657.0, 270667.0, 270677.0, 270687.0, 270697.0, 270707.0, 270717.0, 270727.0, 270737.0, 270747.0, 270757.0, 270767.0, 270777.0, 270787.0, 270797.0, 270807.0, 270817.0, 270827.0, 270837.0, 270847.0, 270857.0, 270867.0, 270877.0, 270887.0, 270897.0, 270907.0, 270917.0, 270927.0, 270937.0, 270946]","example_experiment","32","21306","33","yes","768","2","[0, 0, 0, 0, 0, 0, 0, 0, 0, 0, 0, 0, 0, 0, 0, 0, 0, 0, 0, 0, 0, 0, 0, 0, 0, 0]","[0, 0, 0, 0, 0, 0, 0, 0, -1, -1, -1, -1, -1, -1, -1, -1, -1, 0, 1, 1, 1, 1, -1, -3, -4, -5, -5, -6, -7, -9, -9, -10, -11, -11, -11, -11, -11, -11, -11, -11, -11, -11, -11, -11, -10, -9, -7, -7, -7, -6, -5, -4, -4, -4, -4, -4, -4, -4, -4, -4, -4, -4]","[0, 0, 0, 0, 0, 0, 0, 0, 0, 0, 0, 0, 0, 0, 0, 0, 0, 0, 0, 0, 0, 0, 0, 0, 0, 0]","[0, 0, -2, -9, -16, -26, -33, -39, -41, -42, -42, -42, -42, -42, -40, -34, -19, 0, 25, 52, 83, 110, 134, 157, 176, 196, 211, 223, 234, 244, 251, 257, 262, 265, 266, 266, 266, 266, 266, 266, 266, 266, 266, 267, 269, 269, 270, 270, 272, 277, 285, 295, 304, 310, 314, 315, 315, 315, 315, 315, 315, 315]"
