"acc","accuracy","average_response_time","avg_rt","background","bidi","block","btwC","canvas_backend","clock_backend","colD","colL","colR","colU","color","color_backend","compensation","coordinates","correct","correct_answerins","correct_button_get_response_bef","correct_button_get_response_pos","correct_button_get_start_click","correct_get_response_bef","correct_get_response_pos","correct_get_start_click","correct_instructions","correct_resp","correctkey","count_answerins","count_break1","count_break3","count_correct_f","count_experiment","count_feedback","count_fixation500s","count_get_response_bef","count_get_response_pos","count_get_start_click","count_incorrect_f","count_instructions","count_iti1000","count_logger","count_present_stimulus","count_present_stimulus2","count_start_gogo","count_start_gogo_1","count_start_gogo_1_1","count_start_gogo_1_2","count_start_screen","count_stimuli1","count_stimuli2","count_stimuli3","count_stimuli4","count_stimuli5","count_stimuli6","count_stimuli_prac","count_trial","datetime","description","disable_garbage_collection","experiment_file","experiment_path","font_bold","font_family","font_italic","font_size","font_underline","foreground","form_clicks","fullscreen","height","initiation_time","initiation_time_get_response_bef","initiation_time_get_response_pos","initiation_time_get_start_click","keyboard_backend","live_row","live_row_stimuli_prac","loc","logfile","mouse_backend","n0","n1","n2","opensesame_codename","opensesame_version","repeat_cycle","response","response_answerins","response_feedback","response_get_response_bef","response_get_response_pos","response_get_start_click","response_instructions","response_start_gogo","response_start_gogo_1","response_start_gogo_1_1","response_start_gogo_1_2","response_time","response_time_answerins","response_time_feedback","response_time_get_response_bef","response_time_get_response_pos","response_time_get_start_click","response_time_instructions","response_time_start_gogo","response_time_start_gogo_1","response_time_start_gogo_1_1","response_time_start_gogo_1_2","round_decimals","sampler_backend","sound_buf_size","sound_channels","sound_freq","sound_sample_size","start","subject_nr","subject_parity","synth_backend","tar1L","tar2R","tar3U","tar4D","taskType","time_answerins","time_break1","time_break3","time_correct_f","time_experiment","time_feedback","time_fixation500s","time_get_response_bef","time_get_response_pos","time_get_start_click","time_incorrect_f","time_instructions","time_iti1000","time_logger","time_present_stimulus","time_present_stimulus2","time_start_gogo","time_start_gogo_1","time_start_gogo_1_1","time_start_gogo_1_2","time_start_screen","time_stimuli1","time_stimuli2","time_stimuli3","time_stimuli4","time_stimuli5","time_stimuli6","time_stimuli_prac","time_trial","timestamps_get_response_bef","timestamps_get_response_pos","title","total_correct","total_response_time","total_responses","uniform_coordinates","width","withC","xpos_get_response_bef","xpos_get_response_pos","ypos_get_response_bef","ypos_get_response_pos"
"100","100","570","570","black","no","prac","0","legacy","legacy","w.png","w.png","r.png","w.png","1","legacy","0","relative","1","undefined","NA","red","NA","undefined","1","undefined","undefined","red","1","0","3","0","0","0","NA","0","0","0","0","0","0","0","0","0","0","0","4","NA","NA","0","0","0","0","0","0","0","0","0","12/24/20 09:38:24","Default description","yes","simont_HV.osexp","C:\Users\admin\Desktop\채은\!MouseTracking_final","no","sans","no","18","no","black","no","yes","768","0","140","0","0","legacy","0","0","2","C:/Users/admin/Desktop/채은/!MouseTracking_final/subject-41.csv","legacy","2","0","0","Kafkaesque Koffka","3.2.6","0","red","space","NA","None","red","start","space","NA","NA","NA","NA","570","93507","NA","250","570","798","19428","NA","NA","NA","NA","2","legacy","1024","2","48000","-16","experiment","41","odd","legacy","red","green","blue","yellow","1","21651","NA","NA","117358","2217","NA","116032","116536","116788","115228","NA","2221","117375","118375","116536","116788","NA","NA","NA","NA","115228","NA","NA","NA","NA","NA","NA","115158","115226","[116537.0, 116547.0, 116557.0, 116567.0, 116577.0, 116587.0, 116597.0, 116607.0, 116617.0, 116627.0, 116637.0, 116647.0, 116657.0, 116667.0, 116677.0, 116687.0, 116697.0, 116707.0, 116717.0, 116727.0, 116737.0, 116747.0, 116757.0, 116767.0, 116777.0, 116787.0]","[116788.0, 116798.0, 116808.0, 116818.0, 116828.0, 116838.0, 116848.0, 116858.0, 116868.0, 116878.0, 116888.0, 116898.0, 116908.0, 116918.0, 116928.0, 116938.0, 116948.0, 116958.0, 116968.0, 116978.0, 116988.0, 116998.0, 117008.0, 117018.0, 117028.0, 117038.0, 117048.0, 117058.0, 117068.0, 117078.0, 117088.0, 117098.0, 117108.0, 117118.0, 117128.0, 117138.0, 117148.0, 117158.0, 117168.0, 117178.0, 117188.0, 117198.0, 117208.0, 117218.0, 117228.0, 117238.0, 117248.0, 117258.0, 117268.0, 117278.0, 117288.0, 117298.0, 117308.0, 117318.0, 117328.0, 117338.0, 117348.0, 117358.0, 117358]","example_experiment","1","570","1","yes","768","0","[0, 0, 0, 0, 0, 0, 0, 0, 0, 0, 0, 0, 0, 0, 0, -1, -1, -1, -1, -1, -1, -1, -1, -1, -1, -1]","[-1, 2, 8, 14, 23, 32, 45, 59, 75, 93, 110, 125, 136, 145, 153, 158, 160, 160, 160, 155, 145, 129, 107, 87, 65, 46, 26, 8, -12, -33, -48, -59, -69, -76, -84, -90, -97, -106, -116, -126, -137, -147, -157, -167, -181, -195, -209, -223, -237, -250, -264, -274, -284, -292, -296, -297, -297, -297, -297]","[0, 0, 0, 0, 0, 0, 0, 0, 0, 0, 0, 0, 0, 0, 0, 0, 0, 0, 0, 0, 0, 0, 0, 0, 0, -1]","[-1, -1, -2, -2, -2, -2, -2, -2, -2, -2, -2, -2, -2, -2, -2, -2, -2, -2, -2, -2, -2, -2, -1, 1, 3, 5, 5, 5, 5, 4, 3, 3, 3, 4, 5, 6, 7, 7, 8, 8, 9, 10, 10, 10, 10, 10, 8, 7, 6, 5, 3, 2, 1, 0, 0, 0, 0, 0, 0]"
"100","100","544","544","black","no","prac","0","legacy","legacy","w.png","w.png","w.png","b.png","1","legacy","0","relative","1","undefined","NA","blue","NA","undefined","1","undefined","undefined","blue","3","0","3","0","1","0","NA","1","1","1","1","1","0","1","1","1","1","0","4","NA","NA","1","0","0","0","0","0","0","0","1","12/24/20 09:38:24","Default description","yes","simont_HV.osexp","C:\Users\admin\Desktop\채은\!MouseTracking_final","no","sans","no","18","no","black","no","yes","768","50","None","50","220","legacy","1","1","1","C:/Users/admin/Desktop/채은/!MouseTracking_final/subject-41.csv","legacy","1","2","0","Kafkaesque Koffka","3.2.6","0","blue","space","NA","None","blue","start","space","NA","NA","NA","NA","518","93507","NA","250","518","651","19428","NA","NA","NA","NA","2","legacy","1024","2","48000","-16","experiment","41","odd","legacy","red","green","blue","yellow","2","21651","NA","NA","120415","2217","NA","119142","119645","119897","118490","NA","2221","120425","121425","119645","119897","NA","NA","NA","NA","118490","NA","NA","NA","NA","NA","NA","115158","118489","[119646.0, 119656.0, 119666.0, 119676.0, 119686.0, 119696.0, 119706.0, 119716.0, 119726.0, 119736.0, 119746.0, 119756.0, 119766.0, 119776.0, 119786.0, 119796.0, 119806.0, 119816.0, 119826.0, 119836.0, 119846.0, 119856.0, 119866.0, 119876.0, 119886.0, 119896.0]","[119897.0, 119907.0, 119917.0, 119927.0, 119937.0, 119947.0, 119957.0, 119967.0, 119977.0, 119987.0, 119997.0, 120007.0, 120017.0, 120027.0, 120037.0, 120047.0, 120057.0, 120067.0, 120077.0, 120087.0, 120097.0, 120107.0, 120117.0, 120127.0, 120137.0, 120147.0, 120157.0, 120167.0, 120177.0, 120187.0, 120197.0, 120207.0, 120217.0, 120227.0, 120237.0, 120247.0, 120257.0, 120267.0, 120277.0, 120287.0, 120297.0, 120307.0, 120317.0, 120327.0, 120337.0, 120347.0, 120357.0, 120367.0, 120377.0, 120387.0, 120397.0, 120407.0, 120415]","example_experiment","2","1088","2","yes","768","0","[0, 0, 0, 0, 0, 0, 0, 0, 0, 0, 0, 0, 0, 0, 0, 0, 0, 0, 0, 0, 0, 0, 0, 0, 0, 0]","[0, 0, 0, 0, 0, 0, -1, -2, -3, -5, -7, -9, -10, -11, -12, -13, -14, -15, -17, -19, -21, -21, -24, -27, -28, -29, -29, -29, -29, -29, -29, -29, -29, -29, -29, -29, -29, -29, -29, -26, -24, -22, -19, -18, -17, -16, -16, -16, -16, -16, -16, -16, -16]","[0, 0, 0, 0, 0, 0, 0, 0, 0, 0, 0, 0, 0, 0, 0, 0, 0, 0, 0, 0, 0, 0, 0, 0, 0, 0]","[0, 0, 0, 0, 0, 0, -6, -13, -19, -26, -33, -42, -50, -58, -66, -74, -82, -91, -100, -108, -118, -135, -156, -172, -180, -183, -186, -190, -195, -200, -205, -210, -215, -219, -223, -227, -231, -234, -237, -242, -246, -250, -255, -260, -265, -270, -275, -279, -282, -285, -288, -290, -292]"
"100","100","610.666666667","610.666666667","black","no","prac","2","legacy","legacy","w.png","g.png","w.png","w.png","2","legacy","0","relative","1","undefined","NA","green","NA","undefined","1","undefined","undefined","green","2","0","3","0","2","0","NA","2","2","2","2","2","0","2","2","2","2","0","4","NA","NA","2","0","0","0","0","0","0","0","2","12/24/20 09:38:24","Default description","yes","simont_HV.osexp","C:\Users\admin\Desktop\채은\!MouseTracking_final","no","sans","no","18","no","black","no","yes","768","50","None","50","220","legacy","2","2","1","C:/Users/admin/Desktop/채은/!MouseTracking_final/subject-41.csv","legacy","2","1","2","Kafkaesque Koffka","3.2.6","0","green","space","NA","None","green","start","space","NA","NA","NA","NA","744","93507","NA","250","744","428","19428","NA","NA","NA","NA","2","legacy","1024","2","48000","-16","experiment","41","odd","legacy","red","green","blue","yellow","1","21651","NA","NA","123458","2217","NA","121958","122462","122714","121528","NA","2221","123475","124475","122462","122714","NA","NA","NA","NA","121528","NA","NA","NA","NA","NA","NA","115158","121527","[122463.0, 122473.0, 122483.0, 122493.0, 122503.0, 122513.0, 122523.0, 122533.0, 122543.0, 122553.0, 122563.0, 122573.0, 122583.0, 122593.0, 122603.0, 122613.0, 122623.0, 122633.0, 122643.0, 122653.0, 122663.0, 122673.0, 122683.0, 122693.0, 122703.0, 122713.0]","[122714.0, 122724.0, 122734.0, 122744.0, 122754.0, 122764.0, 122774.0, 122784.0, 122794.0, 122804.0, 122814.0, 122824.0, 122834.0, 122844.0, 122854.0, 122864.0, 122874.0, 122884.0, 122894.0, 122904.0, 122914.0, 122924.0, 122934.0, 122944.0, 122954.0, 122964.0, 122974.0, 122984.0, 122994.0, 123004.0, 123014.0, 123024.0, 123034.0, 123044.0, 123054.0, 123064.0, 123074.0, 123084.0, 123094.0, 123104.0, 123114.0, 123124.0, 123134.0, 123144.0, 123154.0, 123164.0, 123174.0, 123184.0, 123194.0, 123204.0, 123214.0, 123224.0, 123234.0, 123244.0, 123254.0, 123264.0, 123274.0, 123284.0, 123294.0, 123304.0, 123314.0, 123324.0, 123334.0, 123344.0, 123354.0, 123364.0, 123374.0, 123384.0, 123394.0, 123404.0, 123414.0, 123424.0, 123434.0, 123444.0, 123454.0, 123458]","example_experiment","3","1832","3","yes","768","4","[0, 0, 0, 0, 0, 0, 0, 0, 0, 0, 0, 0, 0, 0, 0, 0, 0, 0, 0, 0, 0, 0, 0, 0, 0, 0]","[0, 0, 0, 0, 0, 0, -2, -3, -5, -7, -10, -16, -23, -32, -42, -52, -65, -75, -86, -95, -102, -109, -115, -123, -130, -138, -144, -147, -148, -146, -138, -127, -111, -85, -55, -20, 19, 57, 95, 127, 158, 184, 210, 232, 249, 266, 282, 297, 306, 314, 321, 325, 329, 332, 335, 339, 342, 344, 345, 346, 346, 346, 346, 344, 340, 332, 324, 314, 309, 307, 306, 306, 306, 306, 306, 306]","[0, 0, 0, 0, 0, 0, 0, 0, 0, 0, 0, 0, 0, 0, 0, 0, 0, 0, 0, 0, 0, 0, 0, 0, 0, 0]","[0, 0, 0, 0, 0, 0, 1, 1, 2, 2, 3, 4, 4, 5, 5, 5, 5, 5, 5, 5, 5, 5, 5, 5, 5, 5, 5, 5, 5, 5, 9, 11, 13, 13, 14, 15, 15, 16, 17, 17, 18, 19, 20, 20, 22, 24, 26, 27, 27, 27, 27, 27, 27, 27, 27, 27, 26, 25, 25, 24, 24, 23, 21, 20, 19, 16, 13, 10, 8, 7, 7, 7, 7, 7, 7, 7]"
"100","100","621","621","black","no","prac","3","legacy","legacy","w.png","w.png","w.png","b.png","1","legacy","0","relative","1","undefined","NA","blue","NA","undefined","1","undefined","undefined","blue","3","0","3","0","3","0","NA","3","3","3","3","3","0","3","3","3","3","0","4","NA","NA","3","0","0","0","0","0","0","0","3","12/24/20 09:38:24","Default description","yes","simont_HV.osexp","C:\Users\admin\Desktop\채은\!MouseTracking_final","no","sans","no","18","no","black","no","yes","768","0","210","0","None","legacy","3","3","1","C:/Users/admin/Desktop/채은/!MouseTracking_final/subject-41.csv","legacy","1","2","1","Kafkaesque Koffka","3.2.6","0","blue","space","NA","None","blue","start","space","NA","NA","NA","NA","652","93507","NA","250","652","389","19428","NA","NA","NA","NA","2","legacy","1024","2","48000","-16","experiment","41","odd","legacy","red","green","blue","yellow","2","21651","NA","NA","126381","2217","NA","124973","125477","125729","124583","NA","2221","126395","127395","125477","125729","NA","NA","NA","NA","124583","NA","NA","NA","NA","NA","NA","115158","124581","[125478.0, 125488.0, 125498.0, 125508.0, 125518.0, 125528.0, 125538.0, 125548.0, 125558.0, 125568.0, 125578.0, 125588.0, 125598.0, 125608.0, 125618.0, 125628.0, 125638.0, 125648.0, 125658.0, 125668.0, 125678.0, 125688.0, 125698.0, 125708.0, 125718.0, 125728.0]","[125729.0, 125739.0, 125749.0, 125759.0, 125769.0, 125779.0, 125789.0, 125799.0, 125809.0, 125819.0, 125829.0, 125839.0, 125849.0, 125859.0, 125869.0, 125879.0, 125889.0, 125899.0, 125909.0, 125919.0, 125929.0, 125939.0, 125949.0, 125959.0, 125969.0, 125979.0, 125989.0, 125999.0, 126009.0, 126019.0, 126029.0, 126039.0, 126049.0, 126059.0, 126069.0, 126079.0, 126089.0, 126099.0, 126109.0, 126119.0, 126129.0, 126139.0, 126149.0, 126159.0, 126169.0, 126179.0, 126189.0, 126199.0, 126209.0, 126219.0, 126229.0, 126239.0, 126249.0, 126259.0, 126269.0, 126279.0, 126289.0, 126299.0, 126309.0, 126319.0, 126329.0, 126339.0, 126349.0, 126359.0, 126369.0, 126379.0, 126381]","example_experiment","4","2484","4","yes","768","1","[0, 0, 0, 0, 0, 0, 0, 0, 0, 0, 0, 0, 0, 0, 0, 0, 0, 0, 0, 0, 0, 0, 0, 0, 0, 0]","[0, 0, 0, 0, 0, 0, 0, 0, 0, 0, 0, 0, 0, 0, 0, 0, 0, 0, 0, 0, 0, -2, -4, -6, -9, -12, -14, -16, -18, -21, -22, -25, -27, -29, -30, -31, -32, -33, -34, -35, -36, -36, -36, -36, -36, -36, -35, -33, -30, -29, -27, -26, -25, -23, -22, -21, -20, -18, -16, -15, -15, -15, -14, -14, -13, -13, -13]","[0, 0, 0, 0, 0, 0, 0, 0, 0, 0, 0, 0, 0, 0, 0, 0, 0, 0, 0, 0, 0, 0, 2, 4, 5, 6]","[6, 7, 7, 7, 7, 7, 7, 7, 7, 7, 7, 7, 7, 7, 5, -2, -10, -19, -28, -40, -51, -63, -74, -85, -96, -105, -114, -123, -133, -142, -149, -156, -161, -166, -170, -173, -177, -180, -185, -189, -192, -196, -201, -207, -214, -221, -228, -234, -241, -247, -254, -261, -267, -274, -280, -287, -293, -300, -307, -313, -320, -326, -332, -336, -339, -340, -341]"
"100","100","650.2","650.2","black","no","prac","1","legacy","legacy","w.png","w.png","g.png","w.png","2","legacy","0","relative","1","undefined","NA","green","NA","undefined","1","undefined","undefined","green","2","0","3","0","4","0","NA","4","4","4","4","4","0","4","4","4","4","0","4","NA","NA","4","0","0","0","0","0","0","0","4","12/24/20 09:38:24","Default description","yes","simont_HV.osexp","C:\Users\admin\Desktop\채은\!MouseTracking_final","no","sans","no","18","no","black","no","yes","768","70","None","70","290","legacy","4","4","2","C:/Users/admin/Desktop/채은/!MouseTracking_final/subject-41.csv","legacy","1","1","2","Kafkaesque Koffka","3.2.6","0","green","space","NA","None","green","start","space","NA","NA","NA","NA","767","93507","NA","250","767","331","19428","NA","NA","NA","NA","2","legacy","1024","2","48000","-16","experiment","41","odd","legacy","red","green","blue","yellow","1","21651","NA","NA","129354","2217","NA","127831","128335","128587","127499","NA","2221","129365","130365","128335","128587","NA","NA","NA","NA","127499","NA","NA","NA","NA","NA","NA","115158","127498","[128336.0, 128346.0, 128356.0, 128366.0, 128376.0, 128386.0, 128396.0, 128406.0, 128416.0, 128426.0, 128436.0, 128446.0, 128456.0, 128466.0, 128476.0, 128486.0, 128496.0, 128506.0, 128516.0, 128526.0, 128536.0, 128546.0, 128556.0, 128566.0, 128576.0, 128586.0]","[128587.0, 128597.0, 128607.0, 128617.0, 128627.0, 128637.0, 128647.0, 128657.0, 128667.0, 128677.0, 128687.0, 128697.0, 128707.0, 128717.0, 128727.0, 128737.0, 128747.0, 128757.0, 128767.0, 128777.0, 128787.0, 128797.0, 128807.0, 128817.0, 128827.0, 128837.0, 128847.0, 128857.0, 128867.0, 128877.0, 128887.0, 128897.0, 128907.0, 128917.0, 128927.0, 128937.0, 128947.0, 128957.0, 128967.0, 128977.0, 128987.0, 128997.0, 129007.0, 129017.0, 129027.0, 129037.0, 129047.0, 129057.0, 129067.0, 129077.0, 129087.0, 129097.0, 129107.0, 129117.0, 129127.0, 129128, 129138.0, 129148.0, 129158.0, 129168.0, 129178.0, 129188.0, 129198.0, 129208.0, 129218.0, 129228.0, 129238.0, 129248.0, 129258.0, 129268.0, 129278.0, 129288.0, 129298.0, 129308.0, 129318.0, 129328.0, 129338.0, 129348.0, 129354]","example_experiment","5","3251","5","yes","768","3","[0, 0, 0, 0, 0, 0, 0, 0, 0, 0, 0, 0, 0, 0, 0, 0, 0, 0, 0, 0, 0, 0, 0, 0, 0, 0]","[0, 0, 0, 0, 0, 0, 0, 0, 3, 6, 9, 14, 19, 23, 26, 27, 27, 27, 27, 27, 25, 25, 25, 25, 27, 31, 37, 47, 59, 73, 90, 106, 121, 138, 156, 172, 188, 201, 214, 224, 234, 242, 249, 256, 261, 265, 267, 268, 268, 268, 268, 268, 268, 268, 268, 268, 268, 268, 268, 268, 268, 268, 268, 268, 268, 268, 268, 268, 269, 274, 281, 291, 301, 311, 318, 324, 327, 327, 327]","[0, 0, 0, 0, 0, 0, 0, 0, 0, 0, 0, 0, 0, 0, 0, 0, 0, 0, 0, 0, 0, 0, 0, 0, 0, 0]","[0, 0, 0, 0, 0, 0, 0, 0, 0, 0, 0, 1, 1, 1, 1, 1, 1, 1, 1, 1, 1, 1, 1, 1, 1, 1, 1, 1, 2, 3, 3, 3, 4, 5, 7, 8, 9, 10, 10, 10, 10, 10, 10, 10, 10, 10, 10, 10, 10, 10, 10, 10, 10, 10, 10, 10, 10, 10, 10, 10, 10, 10, 10, 10, 10, 10, 10, 10, 10, 10, 10, 10, 10, 10, 9, 8, 8, 8, 8]"
"100","100","615.833333333","615.833333333","black","no","prac","1","legacy","legacy","y.png","w.png","w.png","w.png","2","legacy","0","relative","1","undefined","NA","yellow","NA","undefined","1","undefined","undefined","yellow","4","0","3","0","5","0","NA","5","5","5","5","5","0","5","5","5","5","0","4","NA","NA","5","0","0","0","0","0","0","0","5","12/24/20 09:38:24","Default description","yes","simont_HV.osexp","C:\Users\admin\Desktop\채은\!MouseTracking_final","no","sans","no","18","no","black","no","yes","768","20","None","20","None","legacy","5","5","2","C:/Users/admin/Desktop/채은/!MouseTracking_final/subject-41.csv","legacy","1","1","1","Kafkaesque Koffka","3.2.6","0","yellow","space","NA","None","yellow","start","space","NA","NA","NA","NA","444","93507","NA","250","444","468","19428","NA","NA","NA","NA","2","legacy","1024","2","48000","-16","experiment","41","odd","legacy","red","green","blue","yellow","2","21651","NA","NA","132152","2217","NA","130954","131456","131708","130485","NA","2221","132155","133155","131456","131708","NA","NA","NA","NA","130485","NA","NA","NA","NA","NA","NA","115158","130484","[131457.0, 131467.0, 131477.0, 131487.0, 131497.0, 131507.0, 131517.0, 131527.0, 131537.0, 131547.0, 131557.0, 131567.0, 131577.0, 131587.0, 131597.0, 131607.0, 131617.0, 131627.0, 131637.0, 131647.0, 131657.0, 131667.0, 131677.0, 131687.0, 131697.0, 131707.0]","[131708.0, 131718.0, 131728.0, 131738.0, 131748.0, 131758.0, 131768.0, 131778.0, 131788.0, 131798.0, 131808.0, 131818.0, 131828.0, 131838.0, 131848.0, 131858.0, 131868.0, 131878.0, 131888.0, 131898.0, 131908.0, 131918.0, 131928.0, 131938.0, 131948.0, 131958.0, 131968.0, 131978.0, 131988.0, 131998.0, 132008.0, 132018.0, 132028.0, 132038.0, 132048.0, 132058.0, 132068.0, 132078.0, 132088.0, 132098.0, 132108.0, 132118.0, 132128.0, 132138.0, 132148.0, 132152]","example_experiment","6","3695","6","yes","768","1","[0, 0, 0, 0, 0, 0, 0, 0, 0, 0, 0, 0, 0, 0, 0, 0, 0, 0, 0, 0, 0, 0, 0, 0, 0, 0]","[0, 0, 0, 0, 1, 2, 2, 2, 2, 2, 1, 0, 0, 0, 0, 0, 0, 0, 0, 0, 1, 2, 2, 2, 3, 3, 3, 3, 3, 3, 4, 4, 5, 5, 5, 5, 5, 5, 5, 5, 6, 6, 8, 9, 9, 9]","[0, 0, 0, 0, 0, 0, 0, 0, 0, 0, 0, 0, 0, 0, 0, 0, 0, 0, 0, 0, 0, 0, 0, 0, 0, 0]","[0, 0, 0, 3, 11, 20, 31, 45, 60, 78, 97, 116, 139, 158, 178, 196, 213, 229, 245, 258, 270, 279, 286, 293, 298, 303, 306, 309, 311, 313, 316, 318, 321, 322, 323, 323, 323, 323, 323, 323, 324, 327, 330, 332, 335, 335]"
"100","100","609.428571429","609.428571429","black","no","prac","2","legacy","legacy","w.png","w.png","r.png","w.png","1","legacy","0","relative","1","undefined","NA","red","NA","undefined","1","undefined","undefined","red","1","0","3","0","6","0","NA","6","6","6","6","6","0","6","6","6","6","0","4","NA","NA","6","0","0","0","0","0","0","0","6","12/24/20 09:38:24","Default description","yes","simont_HV.osexp","C:\Users\admin\Desktop\채은\!MouseTracking_final","no","sans","no","18","no","black","no","yes","768","110","None","110","None","legacy","6","6","2","C:/Users/admin/Desktop/채은/!MouseTracking_final/subject-41.csv","legacy","2","1","1","Kafkaesque Koffka","3.2.6","0","red","space","NA","None","red","start","space","NA","NA","NA","NA","571","93507","NA","250","571","347","19428","NA","NA","NA","NA","2","legacy","1024","2","48000","-16","experiment","41","odd","legacy","red","green","blue","yellow","1","21651","NA","NA","134933","2217","NA","133606","134110","134362","133258","NA","2221","134935","135935","134110","134362","NA","NA","NA","NA","133258","NA","NA","NA","NA","NA","NA","115158","133257","[134111.0, 134121.0, 134131.0, 134141.0, 134151.0, 134161.0, 134171.0, 134181.0, 134191.0, 134201.0, 134211.0, 134221.0, 134231.0, 134241.0, 134251.0, 134261.0, 134271.0, 134281.0, 134291.0, 134301.0, 134311.0, 134321.0, 134331.0, 134341.0, 134351.0, 134361.0]","[134362.0, 134372.0, 134382.0, 134392.0, 134402.0, 134412.0, 134422.0, 134432.0, 134442.0, 134452.0, 134462.0, 134472.0, 134482.0, 134492.0, 134502.0, 134512.0, 134522.0, 134532.0, 134542.0, 134552.0, 134562.0, 134572.0, 134582.0, 134592.0, 134602.0, 134612.0, 134622.0, 134632.0, 134642.0, 134652.0, 134662.0, 134672.0, 134682.0, 134692.0, 134702.0, 134712.0, 134722.0, 134732.0, 134742.0, 134752.0, 134762.0, 134772.0, 134782.0, 134792.0, 134802.0, 134812.0, 134822.0, 134832.0, 134842.0, 134852.0, 134862.0, 134872.0, 134882.0, 134892.0, 134902.0, 134912.0, 134922.0, 134932.0, 134933]","example_experiment","7","4266","7","yes","768","2","[0, 0, 0, 0, 0, 0, 0, 0, 0, 0, 0, 0, 0, 0, 0, 0, 0, 0, 0, 0, 0, 0, 0, 0, 0, 0]","[0, 0, 0, 0, 0, 0, 0, 0, 0, 0, 0, 0, 1, 4, 9, 16, 24, 29, 33, 35, 35, 33, 23, 4, -18, -46, -75, -109, -140, -168, -198, -224, -249, -274, -294, -312, -325, -332, -336, -337, -337, -337, -337, -337, -337, -335, -333, -330, -326, -323, -322, -321, -321, -321, -321, -321, -321, -321, -321]","[0, 0, 0, 0, 0, 0, 0, 0, 0, 0, 0, 0, 0, 0, 0, 0, 0, 0, 0, 0, 0, 0, 0, 0, 0, 0]","[0, 0, 0, 0, 0, 0, 0, 0, 0, 0, 0, 0, 0, 0, 1, 1, 2, 2, 2, 2, 2, 1, -2, -6, -10, -17, -22, -27, -29, -30, -30, -30, -30, -30, -30, -30, -30, -30, -29, -29, -29, -29, -29, -29, -28, -27, -24, -21, -17, -14, -12, -11, -11, -11, -11, -11, -11, -11, -11]"
"100","100","684.5","684.5","black","no","prac","4","legacy","legacy","w.png","w.png","w.png","y.png","2","legacy","0","relative","1","undefined","NA","yellow","NA","undefined","1","undefined","undefined","yellow","4","0","3","0","7","0","NA","7","7","7","7","7","0","7","7","7","7","0","4","NA","NA","7","0","0","0","0","0","0","0","7","12/24/20 09:38:24","Default description","yes","simont_HV.osexp","C:\Users\admin\Desktop\채은\!MouseTracking_final","no","sans","no","18","no","black","no","yes","768","100","None","100","None","legacy","7","7","1","C:/Users/admin/Desktop/채은/!MouseTracking_final/subject-41.csv","legacy","2","2","1","Kafkaesque Koffka","3.2.6","0","yellow","space","NA","None","yellow","start","space","NA","NA","NA","NA","1210","93507","NA","250","1210","433","19428","NA","NA","NA","NA","2","legacy","1024","2","48000","-16","experiment","41","odd","legacy","red","green","blue","yellow","2","21651","NA","NA","138444","2217","NA","136478","136982","137234","136044","NA","2221","138455","139455","136982","137234","NA","NA","NA","NA","136044","NA","NA","NA","NA","NA","NA","115158","136042","[136983.0, 136993.0, 137003.0, 137013.0, 137023.0, 137033.0, 137043.0, 137053.0, 137063.0, 137073.0, 137083.0, 137093.0, 137103.0, 137113.0, 137123.0, 137133.0, 137143.0, 137153.0, 137163.0, 137173.0, 137183.0, 137193.0, 137203.0, 137213.0, 137223.0, 137233.0]","[137234.0, 137244.0, 137254.0, 137264.0, 137274.0, 137284.0, 137294.0, 137304.0, 137314.0, 137324.0, 137334.0, 137344.0, 137354.0, 137364.0, 137374.0, 137384.0, 137394.0, 137404.0, 137414.0, 137424.0, 137434.0, 137444.0, 137454.0, 137464.0, 137474.0, 137484.0, 137494.0, 137504.0, 137514.0, 137524.0, 137534.0, 137544.0, 137554.0, 137564.0, 137574.0, 137584.0, 137594.0, 137604.0, 137614.0, 137624.0, 137634.0, 137644.0, 137654.0, 137664.0, 137674.0, 137684.0, 137694.0, 137704.0, 137714.0, 137724.0, 137734.0, 137744.0, 137754.0, 137764.0, 137774.0, 137784.0, 137794.0, 137804.0, 137814.0, 137824.0, 137834.0, 137844.0, 137854.0, 137864.0, 137874.0, 137884.0, 137894.0, 137904.0, 137914.0, 137924.0, 137934.0, 137940, 137950.0, 137960.0, 137970.0, 137980.0, 137990.0, 138000.0, 138010.0, 138020.0, 138030.0, 138040.0, 138050.0, 138060.0, 138070.0, 138080.0, 138090.0, 138100.0, 138110.0, 138120.0, 138130.0, 138140.0, 138150.0, 138160.0, 138161, 138171.0, 138181.0, 138191.0, 138201.0, 138211.0, 138221.0, 138231.0, 138241.0, 138251.0, 138261.0, 138271.0, 138281.0, 138291.0, 138301.0, 138311.0, 138321.0, 138331.0, 138341.0, 138351.0, 138361.0, 138371.0, 138381.0, 138391.0, 138401.0, 138411.0, 138421.0, 138431.0, 138441.0, 138444]","example_experiment","8","5476","8","yes","768","2","[0, 0, 0, 0, 0, 0, 0, 0, 0, 0, 0, 0, 0, 0, 0, 0, 0, 0, 0, 0, 0, 0, 0, 0, 0, 0]","[0, 0, 0, 0, 0, 0, 0, 0, 0, 0, 0, 0, -1, -2, -3, -3, -3, -3, -3, -3, -2, 2, 7, 13, 22, 32, 43, 55, 67, 77, 88, 97, 103, 109, 113, 116, 118, 119, 118, 112, 104, 94, 85, 76, 66, 60, 54, 50, 46, 43, 42, 41, 41, 41, 41, 41, 41, 41, 41, 41, 41, 41, 41, 42, 42, 42, 42, 42, 42, 42, 41, 41, 40, 40, 39, 39, 39, 39, 39, 39, 39, 39, 39, 39, 38, 38, 36, 35, 34, 33, 33, 33, 33, 33, 33, 33, 33, 33, 33, 33, 33, 33, 33, 33, 33, 33, 33, 33, 33, 33, 33, 33, 33, 33, 33, 33, 33, 32, 30, 29, 28, 27, 27, 27]","[0, 0, 0, 0, 0, 0, 0, 0, 0, 0, 0, 0, 0, 0, 0, 0, 0, 0, 0, 0, 0, 0, 0, 0, 0, 0]","[0, 0, 0, 0, 0, 0, 0, 0, 0, 0, 0, -1, -3, -4, -4, -5, -6, -7, -8, -10, -13, -16, -19, -23, -27, -31, -35, -38, -40, -42, -42, -39, -35, -30, -22, -15, -2, 11, 29, 49, 73, 101, 126, 148, 170, 185, 199, 212, 222, 231, 239, 247, 253, 259, 263, 267, 271, 275, 279, 284, 287, 291, 294, 297, 299, 299, 300, 305, 309, 312, 316, 318, 320, 321, 321, 321, 321, 321, 321, 321, 321, 321, 321, 321, 321, 321, 321, 321, 321, 321, 321, 321, 321, 321, 321, 321, 321, 320, 320, 320, 320, 320, 320, 320, 320, 320, 320, 318, 318, 318, 318, 318, 318, 318, 318, 318, 318, 317, 317, 317, 317, 317, 317, 317]"
"100","100","669.888888889","669.888888889","black","no","prac","3","legacy","legacy","w.png","r.png","w.png","w.png","1","legacy","0","relative","1","undefined","NA","red","NA","undefined","1","undefined","undefined","red","1","0","3","0","8","0","NA","8","8","8","8","8","0","8","8","8","8","0","4","NA","NA","8","0","0","0","0","0","0","0","8","12/24/20 09:38:24","Default description","yes","simont_HV.osexp","C:\Users\admin\Desktop\채은\!MouseTracking_final","no","sans","no","18","no","black","no","yes","768","180","None","180","None","legacy","8","8","1","C:/Users/admin/Desktop/채은/!MouseTracking_final/subject-41.csv","legacy","1","2","2","Kafkaesque Koffka","3.2.6","0","red","space","NA","None","red","start","space","NA","NA","NA","NA","553","93507","NA","250","553","422","19428","NA","NA","NA","NA","2","legacy","1024","2","48000","-16","experiment","41","odd","legacy","red","green","blue","yellow","1","21651","NA","NA","141309","2217","NA","140002","140504","140756","139579","NA","2221","141315","142315","140504","140756","NA","NA","NA","NA","139579","NA","NA","NA","NA","NA","NA","115158","139578","[140505.0, 140515.0, 140525.0, 140535.0, 140545.0, 140555.0, 140565.0, 140575.0, 140585.0, 140595.0, 140605.0, 140615.0, 140625.0, 140635.0, 140645.0, 140655.0, 140665.0, 140675.0, 140685.0, 140695.0, 140705.0, 140715.0, 140725.0, 140735.0, 140745.0, 140755.0]","[140756.0, 140766.0, 140776.0, 140786.0, 140796.0, 140806.0, 140816.0, 140826.0, 140836.0, 140846.0, 140856.0, 140866.0, 140876.0, 140886.0, 140896.0, 140906.0, 140916.0, 140926.0, 140936.0, 140946.0, 140956.0, 140966.0, 140976.0, 140986.0, 140996.0, 141006.0, 141016.0, 141026.0, 141036.0, 141046.0, 141056.0, 141066.0, 141076.0, 141086.0, 141096.0, 141106.0, 141116.0, 141126.0, 141136.0, 141146.0, 141156.0, 141166.0, 141176.0, 141186.0, 141196.0, 141206.0, 141216.0, 141226.0, 141236.0, 141246.0, 141256.0, 141266.0, 141276.0, 141286.0, 141296.0, 141306.0, 141309]","example_experiment","9","6029","9","yes","768","3","[0, 0, 0, 0, 0, 0, 0, 0, 0, 0, 0, 0, 0, 0, 0, 0, 0, 0, 0, 0, 0, 0, 0, 0, 0, 0]","[0, 0, 0, 0, 0, 0, 0, 0, 0, 0, 0, 0, 0, 0, 0, 0, 0, 0, 0, -4, -10, -18, -31, -46, -66, -84, -102, -119, -134, -152, -170, -184, -198, -210, -220, -227, -235, -241, -248, -253, -257, -260, -261, -262, -262, -264, -269, -274, -280, -285, -291, -295, -298, -301, -304, -308, -310]","[0, 0, 0, 0, 0, 0, 0, 0, 0, 0, 0, 0, 0, 0, 0, 0, 0, 0, 0, 0, 0, 0, 0, 0, 0, 0]","[0, 0, 0, 0, 0, 0, 0, 0, 0, 0, 0, 0, 0, 0, 0, 0, 0, 0, 0, 0, 1, 2, 3, 3, 3, 3, 3, 4, 6, 7, 7, 7, 7, 7, 7, 7, 7, 7, 7, 7, 7, 7, 7, 7, 7, 7, 7, 7, 7, 7, 7, 7, 7, 7, 7, 7, 7]"
"100","100","650.5","650.5","black","no","prac","1","legacy","legacy","y.png","w.png","w.png","w.png","2","legacy","0","relative","1","undefined","NA","yellow","NA","undefined","1","undefined","undefined","yellow","4","0","3","0","9","0","NA","9","9","9","9","9","0","9","9","9","9","0","4","NA","NA","9","0","0","0","0","0","0","0","9","12/24/20 09:38:24","Default description","yes","simont_HV.osexp","C:\Users\admin\Desktop\채은\!MouseTracking_final","no","sans","no","18","no","black","no","yes","768","90","None","90","None","legacy","9","9","2","C:/Users/admin/Desktop/채은/!MouseTracking_final/subject-41.csv","legacy","1","1","2","Kafkaesque Koffka","3.2.6","0","yellow","space","NA","None","yellow","start","space","NA","NA","NA","NA","476","93507","NA","250","476","344","19428","NA","NA","NA","NA","2","legacy","1024","2","48000","-16","experiment","41","odd","legacy","red","green","blue","yellow","2","21651","NA","NA","144009","2217","NA","142777","143281","143533","142432","NA","2221","144025","145025","143281","143533","NA","NA","NA","NA","142432","NA","NA","NA","NA","NA","NA","115158","142430","[143282.0, 143292.0, 143302.0, 143312.0, 143322.0, 143332.0, 143342.0, 143352.0, 143362.0, 143372.0, 143382.0, 143392.0, 143402.0, 143412.0, 143422.0, 143432.0, 143442.0, 143452.0, 143462.0, 143472.0, 143482.0, 143492.0, 143502.0, 143512.0, 143522.0, 143532.0]","[143533.0, 143543.0, 143553.0, 143563.0, 143573.0, 143583.0, 143593.0, 143603.0, 143613.0, 143623.0, 143633.0, 143643.0, 143653.0, 143663.0, 143673.0, 143683.0, 143693.0, 143703.0, 143713.0, 143723.0, 143733.0, 143743.0, 143753.0, 143763.0, 143773.0, 143783.0, 143793.0, 143803.0, 143813.0, 143823.0, 143833.0, 143843.0, 143853.0, 143863.0, 143873.0, 143883.0, 143893.0, 143903.0, 143913.0, 143923.0, 143933.0, 143943.0, 143953.0, 143963.0, 143973.0, 143983.0, 143993.0, 144003.0, 144009]","example_experiment","10","6505","10","yes","768","3","[0, 0, 0, 0, 0, 0, 0, 0, 0, 0, 0, 0, 0, 0, 0, 0, 0, 0, 0, 0, 0, 0, 0, 0, 0, 0]","[0, 0, 0, 0, 0, 0, 0, 0, 0, 0, 0, 0, 1, 1, 1, 1, 1, -1, -3, -4, -5, -5, -6, -6, -6, -6, -6, -6, -6, -6, -6, -6, -5, -4, -3, -2, -2, -2, -2, -2, -2, -2, -2, -2, -2, -2, -2, -2, -2]","[0, 0, 0, 0, 0, 0, 0, 0, 0, 0, 0, 0, 0, 0, 0, 0, 0, 0, 0, 0, 0, 0, 0, 0, 0, 0]","[0, 0, 0, 0, 0, 0, 0, 0, 0, 0, 3, 8, 15, 25, 38, 54, 69, 87, 107, 126, 145, 164, 183, 200, 214, 229, 245, 258, 268, 276, 283, 288, 293, 300, 304, 310, 315, 319, 321, 322, 322, 322, 322, 322, 322, 323, 326, 328, 329]"
"100","100","699.727272727","699.727272727","black","no","prac","1","legacy","legacy","w.png","w.png","g.png","w.png","2","legacy","0","relative","1","undefined","NA","green","NA","undefined","1","undefined","undefined","green","2","0","3","0","10","0","NA","10","10","10","10","10","0","10","10","10","10","0","4","NA","NA","10","0","0","0","0","0","0","0","10","12/24/20 09:38:24","Default description","yes","simont_HV.osexp","C:\Users\admin\Desktop\채은\!MouseTracking_final","no","sans","no","18","no","black","no","yes","768","40","None","40","None","legacy","10","10","2","C:/Users/admin/Desktop/채은/!MouseTracking_final/subject-41.csv","legacy","1","1","1","Kafkaesque Koffka","3.2.6","0","green","space","NA","None","green","start","space","NA","NA","NA","NA","1192","93507","NA","250","1192","305","19428","NA","NA","NA","NA","2","legacy","1024","2","48000","-16","experiment","41","odd","legacy","red","green","blue","yellow","1","21651","NA","NA","147388","2217","NA","145440","145944","146196","145134","NA","2221","147395","148395","145944","146196","NA","NA","NA","NA","145134","NA","NA","NA","NA","NA","NA","115158","145132","[145945.0, 145955.0, 145965.0, 145975.0, 145985.0, 145995.0, 146005.0, 146015.0, 146025.0, 146035.0, 146045.0, 146055.0, 146065.0, 146075.0, 146085.0, 146095.0, 146105.0, 146115.0, 146125.0, 146135.0, 146145.0, 146155.0, 146165.0, 146175.0, 146185.0, 146195.0]","[146196.0, 146206.0, 146216.0, 146226.0, 146236.0, 146246.0, 146256.0, 146266.0, 146276.0, 146286.0, 146296.0, 146306.0, 146316.0, 146326.0, 146336.0, 146346.0, 146356.0, 146366.0, 146376.0, 146386.0, 146396.0, 146406.0, 146416.0, 146426.0, 146436.0, 146446.0, 146456.0, 146466.0, 146476.0, 146486.0, 146496.0, 146506.0, 146516.0, 146526.0, 146536.0, 146546.0, 146556.0, 146566.0, 146576.0, 146586.0, 146596.0, 146606.0, 146616.0, 146626.0, 146636.0, 146646.0, 146656.0, 146666.0, 146676.0, 146686.0, 146696.0, 146706.0, 146716.0, 146726.0, 146736.0, 146746.0, 146756.0, 146766.0, 146776.0, 146786.0, 146796.0, 146806.0, 146816.0, 146826.0, 146836.0, 146846.0, 146856.0, 146866.0, 146876.0, 146886.0, 146896.0, 146906.0, 146916.0, 146926.0, 146936.0, 146946.0, 146956.0, 146966.0, 146976.0, 146986.0, 146996.0, 147006.0, 147016.0, 147026.0, 147036.0, 147046.0, 147056.0, 147066.0, 147076.0, 147086.0, 147096.0, 147106.0, 147116.0, 147126.0, 147136.0, 147146.0, 147156.0, 147166.0, 147176.0, 147186.0, 147196.0, 147206.0, 147216.0, 147226.0, 147236.0, 147246.0, 147256.0, 147266.0, 147276.0, 147286.0, 147296.0, 147306.0, 147316.0, 147326.0, 147336.0, 147346.0, 147356.0, 147366.0, 147376.0, 147386.0, 147388]","example_experiment","11","7697","11","yes","768","1","[0, 0, 0, 0, 0, 0, 0, 0, 0, 0, 0, 0, 0, 0, 0, 0, 0, 0, 0, 0, 0, 0, 0, 0, 0, 0]","[0, 0, 0, 0, 0, 1, 3, 5, 6, 7, 7, 7, 7, 5, 2, -1, -4, -6, -9, -13, -18, -26, -36, -46, -54, -62, -68, -72, -76, -79, -80, -81, -81, -81, -78, -72, -64, -56, -47, -37, -27, -16, -6, 6, 15, 21, 23, 26, 26, 26, 26, 22, 18, 14, 10, 6, 2, -1, -4, -7, -12, -18, -24, -29, -33, -36, -38, -39, -40, -40, -40, -40, -40, -38, -33, -25, -14, 1, 21, 43, 73, 102, 136, 166, 195, 226, 254, 280, 300, 320, 334, 343, 349, 353, 354, 355, 355, 356, 356, 356, 356, 357, 359, 362, 364, 366, 367, 367, 367, 366, 361, 356, 351, 346, 341, 336, 333, 332, 331, 331, 331]","[0, 0, 0, 0, 0, 0, 0, 0, 0, 0, 0, 0, 0, 0, 0, 0, 0, 0, 0, 0, 0, 0, 0, 0, 0, 0]","[0, 0, 0, 0, 0, 0, 0, 0, 0, 0, 0, 0, 0, 1, 2, 2, 3, 4, 4, 5, 5, 5, 5, 5, 5, 5, 5, 4, 2, 0, -2, -5, -9, -14, -23, -34, -49, -66, -82, -99, -114, -125, -135, -141, -144, -145, -145, -140, -130, -113, -90, -63, -29, 5, 35, 62, 87, 113, 137, 162, 183, 205, 226, 243, 261, 274, 286, 297, 305, 310, 312, 312, 312, 312, 307, 297, 283, 260, 231, 203, 170, 140, 108, 80, 53, 28, 6, -13, -26, -39, -46, -51, -52, -52, -52, -52, -48, -45, -42, -41, -39, -38, -37, -35, -33, -32, -32, -32, -32, -31, -31, -30, -28, -22, -17, -13, -10, -9, -9, -9, -9]"
"100","100","690.5","690.5","black","no","prac","1","legacy","legacy","w.png","w.png","w.png","b.png","1","legacy","0","relative","1","undefined","NA","blue","NA","undefined","1","undefined","undefined","blue","3","0","3","0","11","0","NA","11","11","11","11","11","0","11","11","11","11","0","4","NA","NA","11","0","0","0","0","0","0","0","11","12/24/20 09:38:24","Default description","yes","simont_HV.osexp","C:\Users\admin\Desktop\채은\!MouseTracking_final","no","sans","no","18","no","black","no","yes","768","110","None","110","120","legacy","11","11","1","C:/Users/admin/Desktop/채은/!MouseTracking_final/subject-41.csv","legacy","1","1","1","Kafkaesque Koffka","3.2.6","0","blue","space","NA","None","blue","start","space","NA","NA","NA","NA","589","93507","NA","250","589","261","19428","NA","NA","NA","NA","2","legacy","1024","2","48000","-16","experiment","41","odd","legacy","red","green","blue","yellow","2","21651","NA","NA","150106","2217","NA","148761","149265","149517","148499","NA","2221","150125","151125","149265","149517","NA","NA","NA","NA","148499","NA","NA","NA","NA","NA","NA","115158","148497","[149266.0, 149276.0, 149286.0, 149296.0, 149306.0, 149316.0, 149326.0, 149336.0, 149346.0, 149356.0, 149366.0, 149376.0, 149386.0, 149396.0, 149406.0, 149416.0, 149426.0, 149436.0, 149446.0, 149456.0, 149466.0, 149476.0, 149486.0, 149496.0, 149506.0, 149516.0]","[149517.0, 149527.0, 149537.0, 149547.0, 149557.0, 149567.0, 149577.0, 149587.0, 149597.0, 149607.0, 149617.0, 149627.0, 149637.0, 149647.0, 149657.0, 149667.0, 149677.0, 149687.0, 149697.0, 149707.0, 149717.0, 149727.0, 149737.0, 149747.0, 149757.0, 149767.0, 149777.0, 149787.0, 149797.0, 149807.0, 149817.0, 149827.0, 149837.0, 149847.0, 149857.0, 149867.0, 149877.0, 149887.0, 149897.0, 149907.0, 149917.0, 149927.0, 149937.0, 149947.0, 149957.0, 149967.0, 149977.0, 149987.0, 149997.0, 150007.0, 150017.0, 150027.0, 150037.0, 150047.0, 150057.0, 150067.0, 150077.0, 150087.0, 150097.0, 150106]","example_experiment","12","8286","12","yes","768","1","[0, 0, 0, 0, 0, 0, 0, 0, 0, 0, 0, 0, 0, 0, 0, 0, 0, 0, 0, 0, 0, 0, 0, 0, 0, 0]","[0, 0, 0, 0, 0, 0, 0, 0, 0, 0, 0, 0, 0, 0, -2, -2, -4, -6, -9, -13, -18, -24, -31, -36, -42, -47, -50, -51, -51, -51, -51, -50, -49, -47, -45, -44, -42, -41, -40, -39, -38, -37, -36, -34, -32, -29, -26, -23, -21, -19, -18, -18, -17, -17, -17, -16, -16, -15, -15, -15]","[0, 0, 0, 0, 0, 0, 0, 0, 0, 0, 0, 0, 0, 0, 0, 0, 0, 0, 0, 0, 0, 0, 0, 0, 0, 0]","[0, 0, 0, 0, 0, 0, 0, 0, 0, 0, 0, 0, -2, -9, -15, -22, -30, -37, -47, -56, -68, -83, -98, -113, -129, -144, -157, -169, -181, -192, -202, -209, -215, -221, -225, -228, -232, -235, -239, -242, -246, -249, -252, -256, -259, -262, -266, -269, -272, -275, -277, -280, -283, -286, -289, -291, -293, -295, -296, -297]"
"100","100","677.692307692","677.692307692","black","no","prac","1","legacy","legacy","w.png","r.png","w.png","w.png","1","legacy","0","relative","1","undefined","NA","red","NA","undefined","1","undefined","undefined","red","1","0","3","0","12","0","NA","12","12","12","12","12","0","12","12","12","12","0","4","NA","NA","12","0","0","0","0","0","0","0","12","12/24/20 09:38:24","Default description","yes","simont_HV.osexp","C:\Users\admin\Desktop\채은\!MouseTracking_final","no","sans","no","18","no","black","no","yes","768","60","None","60","None","legacy","12","12","1","C:/Users/admin/Desktop/채은/!MouseTracking_final/subject-41.csv","legacy","1","1","1","Kafkaesque Koffka","3.2.6","0","red","space","NA","None","red","start","space","NA","NA","NA","NA","524","93507","NA","250","524","343","19428","NA","NA","NA","NA","2","legacy","1024","2","48000","-16","experiment","41","odd","legacy","red","green","blue","yellow","1","21651","NA","NA","152871","2217","NA","151591","152095","152347","151247","NA","2221","152875","153875","152095","152347","NA","NA","NA","NA","151247","NA","NA","NA","NA","NA","NA","115158","151245","[152096.0, 152106.0, 152116.0, 152126.0, 152136.0, 152146.0, 152156.0, 152166.0, 152176.0, 152186.0, 152196.0, 152206.0, 152216.0, 152226.0, 152236.0, 152246.0, 152256.0, 152266.0, 152276.0, 152286.0, 152296.0, 152306.0, 152316.0, 152326.0, 152336.0, 152346.0]","[152347.0, 152357.0, 152367.0, 152377.0, 152387.0, 152397.0, 152407.0, 152417.0, 152427.0, 152437.0, 152447.0, 152457.0, 152467.0, 152477.0, 152487.0, 152497.0, 152507.0, 152517.0, 152527.0, 152537.0, 152547.0, 152557.0, 152567.0, 152577.0, 152587.0, 152597.0, 152607.0, 152617.0, 152627.0, 152637.0, 152647.0, 152657.0, 152667.0, 152677.0, 152687.0, 152697.0, 152707.0, 152717.0, 152727.0, 152737.0, 152747.0, 152757.0, 152767.0, 152777.0, 152787.0, 152797.0, 152807.0, 152817.0, 152827.0, 152837.0, 152847.0, 152857.0, 152867.0, 152871]","example_experiment","13","8810","13","yes","768","1","[0, 0, 0, 0, 0, 0, 0, 0, 0, 0, 0, 0, 0, 0, 0, 0, 0, 0, 0, 0, 0, 0, 0, 0, 0, 0]","[0, 0, 0, 0, 0, 0, 0, -2, -7, -12, -19, -30, -46, -63, -78, -92, -105, -117, -131, -145, -160, -174, -186, -196, -205, -213, -218, -222, -225, -226, -229, -232, -236, -242, -249, -257, -264, -271, -277, -283, -288, -293, -299, -307, -316, -323, -330, -334, -338, -341, -343, -343, -343, -343]","[0, 0, 0, 0, 0, 0, 0, 0, 0, 0, 0, 0, 0, 0, 0, 0, 0, 0, 0, 0, 0, 0, 0, 0, 0, 0]","[0, 0, 0, 0, 0, 0, 0, 1, 2, 3, 4, 4, 4, 4, 4, 6, 8, 11, 14, 17, 18, 19, 19, 20, 20, 21, 21, 21, 21, 21, 21, 21, 21, 21, 21, 20, 19, 19, 19, 19, 18, 17, 15, 12, 9, 8, 6, 6, 5, 5, 4, 4, 4, 4]"
"100","100","693.857142857","693.857142857","black","no","prac","2","legacy","legacy","w.png","w.png","w.png","y.png","2","legacy","0","relative","1","undefined","NA","yellow","NA","undefined","1","undefined","undefined","yellow","4","0","3","0","13","0","NA","13","13","13","13","13","0","13","13","13","13","0","4","NA","NA","13","0","0","0","0","0","0","0","13","12/24/20 09:38:24","Default description","yes","simont_HV.osexp","C:\Users\admin\Desktop\채은\!MouseTracking_final","no","sans","no","18","no","black","no","yes","768","140","None","140","None","legacy","13","13","1","C:/Users/admin/Desktop/채은/!MouseTracking_final/subject-41.csv","legacy","2","1","1","Kafkaesque Koffka","3.2.6","0","yellow","space","NA","None","yellow","start","space","NA","NA","NA","NA","904","93507","NA","250","904","301","19428","NA","NA","NA","NA","2","legacy","1024","2","48000","-16","experiment","41","odd","legacy","red","green","blue","yellow","2","21651","NA","NA","155949","2217","NA","154289","154793","155045","153986","NA","2221","155965","156965","154793","155045","NA","NA","NA","NA","153986","NA","NA","NA","NA","NA","NA","115158","153985","[154794.0, 154804.0, 154814.0, 154824.0, 154834.0, 154844.0, 154854.0, 154864.0, 154874.0, 154884.0, 154894.0, 154904.0, 154914.0, 154924.0, 154934.0, 154944.0, 154954.0, 154964.0, 154974.0, 154984.0, 154994.0, 155004.0, 155014.0, 155024.0, 155034.0, 155044.0]","[155045.0, 155055.0, 155065.0, 155075.0, 155085.0, 155095.0, 155105.0, 155115.0, 155125.0, 155135.0, 155145.0, 155155.0, 155165.0, 155175.0, 155185.0, 155195.0, 155205.0, 155215.0, 155225.0, 155235.0, 155245.0, 155255.0, 155265.0, 155275.0, 155285.0, 155295.0, 155305.0, 155315.0, 155325.0, 155335.0, 155345.0, 155355.0, 155365.0, 155375.0, 155385.0, 155395.0, 155405.0, 155415.0, 155425.0, 155435.0, 155445.0, 155455.0, 155465.0, 155475.0, 155485.0, 155495.0, 155505.0, 155515.0, 155525.0, 155535.0, 155545.0, 155555.0, 155565.0, 155575.0, 155585.0, 155595.0, 155605.0, 155615.0, 155625.0, 155635.0, 155645.0, 155655.0, 155665.0, 155675.0, 155685.0, 155694, 155704.0, 155714.0, 155724.0, 155734.0, 155744.0, 155754.0, 155764.0, 155774.0, 155784.0, 155794.0, 155804.0, 155814.0, 155824.0, 155834.0, 155844.0, 155854.0, 155864.0, 155874.0, 155884.0, 155894.0, 155904.0, 155914.0, 155924.0, 155934.0, 155944.0, 155949]","example_experiment","14","9714","14","yes","768","2","[0, 0, 0, 0, 0, 0, 0, 0, 0, 0, 0, 0, 0, 0, 0, 0, 0, 0, 0, 0, 0, 0, 0, 0, 0, 0]","[0, 0, 0, 0, 0, 0, 0, 0, 0, 0, 0, 0, 0, 0, 0, -3, -7, -11, -15, -19, -22, -25, -28, -31, -35, -38, -39, -40, -40, -40, -39, -36, -30, -22, -15, -12, -12, -12, -12, -12, -13, -13, -13, -13, -13, -13, -13, -13, -13, -13, -13, -11, -8, -5, -3, 0, 3, 5, 7, 7, 7, 7, 7, 7, 7, 7, 7, 7, 7, 7, 7, 7, 6, 4, 3, 3, 3, 3, 3, 3, 3, 3, 2, 1, 1, 1, 1, 1, 1, 1, 1, 1]","[0, 0, 0, 0, 0, 0, 0, 0, 0, 0, 0, 0, 0, 0, 0, 0, 0, 0, 0, 0, 0, 0, 0, 0, 0, 0]","[0, 0, 0, 0, 0, 0, 0, 0, 0, 0, 0, 0, 0, 0, 0, 0, 0, -1, -1, -1, 0, 1, 3, 5, 7, 10, 12, 14, 17, 20, 25, 31, 41, 53, 67, 78, 89, 103, 121, 141, 162, 181, 200, 217, 234, 252, 267, 283, 296, 309, 320, 331, 341, 348, 356, 361, 367, 371, 374, 375, 375, 375, 375, 375, 375, 375, 375, 375, 375, 375, 375, 375, 373, 370, 368, 368, 367, 367, 367, 366, 365, 364, 362, 360, 357, 355, 353, 351, 350, 350, 350, 350]"
"100","100","681.6","681.6","black","no","prac","3","legacy","legacy","w.png","r.png","w.png","w.png","1","legacy","0","relative","1","undefined","NA","red","NA","undefined","1","undefined","undefined","red","1","0","3","0","14","0","NA","14","14","14","14","14","0","14","14","14","14","0","4","NA","NA","14","0","0","0","0","0","0","0","14","12/24/20 09:38:24","Default description","yes","simont_HV.osexp","C:\Users\admin\Desktop\채은\!MouseTracking_final","no","sans","no","18","no","black","no","yes","768","30","None","30","None","legacy","14","14","1","C:/Users/admin/Desktop/채은/!MouseTracking_final/subject-41.csv","legacy","1","2","1","Kafkaesque Koffka","3.2.6","0","red","space","NA","None","red","start","space","NA","NA","NA","NA","510","93507","NA","250","510","391","19428","NA","NA","NA","NA","2","legacy","1024","2","48000","-16","experiment","41","odd","legacy","red","green","blue","yellow","1","21651","NA","NA","158746","2217","NA","157480","157984","158236","157088","NA","2221","158765","159765","157984","158236","NA","NA","NA","NA","157088","NA","NA","NA","NA","NA","NA","115158","157087","[157985.0, 157995.0, 158005.0, 158015.0, 158025.0, 158035.0, 158045.0, 158055.0, 158065.0, 158075.0, 158085.0, 158095.0, 158105.0, 158115.0, 158125.0, 158135.0, 158145.0, 158155.0, 158165.0, 158175.0, 158185.0, 158195.0, 158205.0, 158215.0, 158225.0, 158235.0]","[158236.0, 158246.0, 158256.0, 158266.0, 158276.0, 158286.0, 158296.0, 158306.0, 158316.0, 158326.0, 158336.0, 158346.0, 158356.0, 158366.0, 158376.0, 158386.0, 158396.0, 158406.0, 158416.0, 158426.0, 158436.0, 158446.0, 158456.0, 158466.0, 158476.0, 158486.0, 158496.0, 158506.0, 158516.0, 158526.0, 158536.0, 158546.0, 158556.0, 158566.0, 158576.0, 158586.0, 158596.0, 158606.0, 158616.0, 158626.0, 158636.0, 158646.0, 158656.0, 158666.0, 158676.0, 158686.0, 158696.0, 158706.0, 158716.0, 158726.0, 158736.0, 158746.0, 158746]","example_experiment","15","10224","15","yes","768","1","[0, 0, 0, 0, 0, 0, 0, 0, 0, 0, 0, 0, 0, 0, 0, 0, 0, 0, 0, 0, 0, 0, 0, 0, 0, 0]","[0, 0, 0, 0, -1, -2, -4, -6, -8, -11, -14, -17, -20, -23, -27, -30, -36, -42, -50, -60, -71, -83, -95, -105, -116, -128, -142, -156, -173, -189, -203, -217, -227, -236, -242, -247, -252, -256, -257, -257, -257, -257, -257, -257, -259, -262, -267, -271, -276, -281, -284, -287, -288]","[0, 0, 0, 0, 0, 0, 0, 0, 0, 0, 0, 0, 0, 0, 0, 0, 0, 0, 0, 0, 0, 0, 0, 0, 0, 0]","[0, 0, 0, 0, 0, 0, 0, 1, 1, 3, 3, 4, 5, 5, 7, 7, 8, 9, 9, 9, 9, 9, 9, 9, 10, 10, 10, 10, 8, 6, 5, 4, 4, 4, 4, 4, 4, 4, 4, 4, 4, 4, 4, 4, 4, 4, 4, 4, 4, 4, 4, 4, 4]"
"100","100","700.75","700.75","black","no","prac","2","legacy","legacy","b.png","w.png","w.png","w.png","1","legacy","0","relative","1","undefined","NA","blue","NA","undefined","1","undefined","undefined","blue","3","0","3","0","15","0","NA","15","15","15","15","15","0","15","15","15","15","0","4","NA","NA","15","0","0","0","0","0","0","0","15","12/24/20 09:38:24","Default description","yes","simont_HV.osexp","C:\Users\admin\Desktop\채은\!MouseTracking_final","no","sans","no","18","no","black","no","yes","768","210","None","210","None","legacy","15","15","2","C:/Users/admin/Desktop/채은/!MouseTracking_final/subject-41.csv","legacy","2","1","2","Kafkaesque Koffka","3.2.6","0","blue","space","NA","None","blue","start","space","NA","NA","NA","NA","988","93507","NA","250","988","303","19428","NA","NA","NA","NA","2","legacy","1024","2","48000","-16","experiment","41","odd","legacy","red","green","blue","yellow","2","21651","NA","NA","161923","2217","NA","160179","160683","160935","159875","NA","2221","161945","162945","160683","160935","NA","NA","NA","NA","159875","NA","NA","NA","NA","NA","NA","115158","159873","[160684.0, 160694.0, 160704.0, 160714.0, 160724.0, 160734.0, 160744.0, 160754.0, 160764.0, 160774.0, 160784.0, 160794.0, 160804.0, 160814.0, 160824.0, 160834.0, 160844.0, 160854.0, 160864.0, 160874.0, 160884.0, 160894.0, 160904.0, 160914.0, 160924.0, 160934.0]","[160935.0, 160945.0, 160955.0, 160965.0, 160975.0, 160985.0, 160995.0, 161005.0, 161015.0, 161025.0, 161035.0, 161045.0, 161055.0, 161065.0, 161075.0, 161085.0, 161095.0, 161105.0, 161115.0, 161125.0, 161135.0, 161145.0, 161155.0, 161165.0, 161175.0, 161185.0, 161195.0, 161205.0, 161215.0, 161225.0, 161235.0, 161245.0, 161255.0, 161265.0, 161275.0, 161285.0, 161295.0, 161305.0, 161315.0, 161325.0, 161335.0, 161345.0, 161355.0, 161365.0, 161375.0, 161385.0, 161395.0, 161405.0, 161415.0, 161425.0, 161435.0, 161445.0, 161455.0, 161465.0, 161475.0, 161485.0, 161495.0, 161505.0, 161515.0, 161525.0, 161535.0, 161545.0, 161555.0, 161565.0, 161575.0, 161585.0, 161595.0, 161605.0, 161615.0, 161625.0, 161635.0, 161645.0, 161655.0, 161665.0, 161675.0, 161685.0, 161695.0, 161705.0, 161715.0, 161725.0, 161735.0, 161745.0, 161755.0, 161765.0, 161775.0, 161785.0, 161795.0, 161805.0, 161815.0, 161825.0, 161835.0, 161845.0, 161855.0, 161865.0, 161875.0, 161885.0, 161895.0, 161905.0, 161915.0, 161923]","example_experiment","16","11212","16","yes","768","4","[0, 0, 0, 0, 0, 0, 0, 0, 0, 0, 0, 0, 0, 0, 0, 0, 0, 0, 0, 0, 0, 0, 0, 0, 0, 0]","[0, 0, 0, 0, 0, 0, 0, 0, 0, 0, 0, 0, 0, 0, 0, 0, 0, 0, 0, 0, 0, 0, -1, -1, -1, -1, -1, -1, -1, -1, -1, 2, 6, 13, 23, 39, 56, 72, 90, 106, 121, 138, 154, 168, 183, 197, 209, 220, 228, 233, 240, 245, 249, 253, 256, 258, 259, 259, 255, 247, 230, 208, 180, 149, 120, 96, 77, 58, 42, 30, 21, 15, 12, 10, 10, 10, 10, 10, 11, 13, 16, 18, 19, 19, 19, 15, 11, 5, 0, -5, -9, -12, -13, -13, -13, -13, -13, -13, -12, -12]","[0, 0, 0, 0, 0, 0, 0, 0, 0, 0, 0, 0, 0, 0, 0, 0, 0, 0, 0, 0, 0, 0, 0, 0, 0, 0]","[0, 0, 0, 0, 0, 0, 0, 0, 0, 0, 0, 0, 0, 0, 0, 0, 0, 0, 0, 0, 0, 0, 0, 0, 0, 0, 0, 0, 0, 0, 0, 0, 0, -1, -1, -1, -1, -1, -3, -4, -6, -8, -9, -11, -11, -11, -12, -12, -13, -14, -15, -16, -17, -18, -19, -20, -20, -22, -26, -31, -41, -54, -69, -87, -102, -116, -125, -136, -146, -154, -161, -167, -172, -175, -179, -183, -186, -190, -193, -195, -197, -200, -204, -209, -216, -225, -235, -246, -257, -268, -278, -287, -294, -302, -308, -315, -320, -325, -328, -329]"
"100","100","692.235294118","692.235294118","black","no","prac","4","legacy","legacy","w.png","w.png","r.png","w.png","1","legacy","0","relative","1","undefined","NA","red","NA","undefined","1","undefined","undefined","red","1","0","3","0","16","0","NA","16","16","16","16","16","0","16","16","16","16","0","4","NA","NA","16","0","0","0","0","0","0","0","16","12/24/20 09:38:24","Default description","yes","simont_HV.osexp","C:\Users\admin\Desktop\채은\!MouseTracking_final","no","sans","no","18","no","black","no","yes","768","140","None","140","10","legacy","16","16","2","C:/Users/admin/Desktop/채은/!MouseTracking_final/subject-41.csv","legacy","2","2","1","Kafkaesque Koffka","3.2.6","0","red","space","NA","None","red","start","space","NA","NA","NA","NA","556","93507","NA","250","556","331","19428","NA","NA","NA","NA","2","legacy","1024","2","48000","-16","experiment","41","odd","legacy","red","green","blue","yellow","1","21651","NA","NA","164693","2217","NA","163381","163885","164137","163049","NA","2221","164695","165695","163885","164137","NA","NA","NA","NA","163049","NA","NA","NA","NA","NA","NA","115158","163048","[163886.0, 163896.0, 163906.0, 163916.0, 163926.0, 163936.0, 163946.0, 163956.0, 163966.0, 163976.0, 163986.0, 163996.0, 164006.0, 164016.0, 164026.0, 164036.0, 164046.0, 164056.0, 164066.0, 164076.0, 164086.0, 164096.0, 164106.0, 164116.0, 164126.0, 164136.0]","[164137.0, 164147.0, 164157.0, 164167.0, 164177.0, 164187.0, 164197.0, 164207.0, 164217.0, 164227.0, 164237.0, 164247.0, 164257.0, 164267.0, 164277.0, 164287.0, 164297.0, 164307.0, 164317.0, 164327.0, 164337.0, 164347.0, 164357.0, 164367.0, 164377.0, 164387.0, 164397.0, 164407.0, 164417.0, 164427.0, 164437.0, 164447.0, 164457.0, 164467.0, 164477.0, 164487.0, 164497.0, 164507.0, 164517.0, 164527.0, 164537.0, 164547.0, 164557.0, 164567.0, 164577.0, 164587.0, 164597.0, 164607.0, 164617.0, 164627.0, 164637.0, 164647.0, 164657.0, 164667.0, 164677.0, 164687.0, 164693]","example_experiment","17","11768","17","yes","768","2","[0, 0, 0, 0, 0, 0, 0, 0, 0, 0, 0, 0, 0, 0, 0, 0, 0, 0, 0, 0, 0, 0, 0, 0, 0, 0]","[0, 0, 0, 0, 0, 0, 0, 0, 0, 0, 0, 0, 0, 0, 0, -4, -10, -18, -28, -38, -48, -60, -74, -90, -107, -122, -138, -153, -165, -177, -191, -202, -211, -218, -224, -227, -229, -231, -233, -236, -239, -244, -250, -256, -261, -267, -273, -281, -290, -300, -311, -318, -324, -328, -331, -332, -332]","[0, 0, 0, 0, 0, 0, 0, 0, 0, 0, 0, 0, 0, 0, 0, 0, 0, 0, 0, 0, 0, 0, 0, 0, 0, 0]","[0, 0, 0, 0, 0, 0, 0, 0, 0, 0, 0, 0, 0, 0, 0, 1, 1, 2, 2, 3, 4, 6, 8, 10, 11, 11, 11, 11, 11, 11, 11, 11, 10, 9, 9, 9, 9, 9, 9, 9, 9, 9, 9, 9, 9, 9, 9, 9, 8, 6, 3, 2, 1, 0, 0, 0, 0]"
"100","100","703.555555556","703.555555556","black","no","prac","4","legacy","legacy","b.png","w.png","w.png","w.png","1","legacy","0","relative","1","undefined","NA","blue","NA","undefined","1","undefined","undefined","blue","3","0","3","0","17","0","NA","17","17","17","17","17","0","17","17","17","17","0","4","NA","NA","17","0","0","0","0","0","0","0","17","12/24/20 09:38:24","Default description","yes","simont_HV.osexp","C:\Users\admin\Desktop\채은\!MouseTracking_final","no","sans","no","18","no","black","no","yes","768","150","None","150","30","legacy","17","17","2","C:/Users/admin/Desktop/채은/!MouseTracking_final/subject-41.csv","legacy","2","2","2","Kafkaesque Koffka","3.2.6","0","blue","space","NA","None","blue","start","space","NA","NA","NA","NA","896","93507","NA","250","896","244","19428","NA","NA","NA","NA","2","legacy","1024","2","48000","-16","experiment","41","odd","legacy","red","green","blue","yellow","2","21651","NA","NA","167701","2217","NA","166049","166553","166805","165804","NA","2221","167705","168705","166553","166805","NA","NA","NA","NA","165803","NA","NA","NA","NA","NA","NA","115158","165802","[166554.0, 166564.0, 166574.0, 166584.0, 166594.0, 166604.0, 166614.0, 166624.0, 166634.0, 166644.0, 166654.0, 166664.0, 166674.0, 166684.0, 166694.0, 166704.0, 166714.0, 166724.0, 166734.0, 166744.0, 166754.0, 166764.0, 166774.0, 166784.0, 166794.0, 166804.0]","[166805.0, 166815.0, 166825.0, 166835.0, 166845.0, 166855.0, 166865.0, 166875.0, 166885.0, 166895.0, 166905.0, 166915.0, 166925.0, 166935.0, 166945.0, 166955.0, 166965.0, 166975.0, 166985.0, 166995.0, 167005.0, 167015.0, 167025.0, 167035.0, 167045.0, 167055.0, 167065.0, 167075.0, 167085.0, 167095.0, 167105.0, 167115.0, 167125.0, 167135.0, 167145.0, 167155.0, 167165.0, 167175.0, 167185.0, 167195.0, 167205.0, 167215.0, 167225.0, 167235.0, 167245.0, 167255.0, 167265.0, 167275.0, 167285.0, 167295.0, 167305.0, 167315.0, 167325.0, 167335.0, 167345.0, 167355.0, 167365.0, 167375.0, 167385.0, 167395.0, 167405.0, 167415.0, 167425.0, 167435.0, 167445.0, 167455.0, 167465.0, 167475.0, 167485.0, 167495.0, 167505.0, 167515.0, 167525.0, 167535.0, 167545.0, 167555.0, 167565.0, 167575.0, 167585.0, 167595.0, 167605.0, 167615.0, 167625.0, 167635.0, 167645.0, 167655.0, 167665.0, 167675.0, 167685.0, 167695.0, 167701]","example_experiment","18","12664","18","yes","768","4","[0, 0, 0, 0, 0, 0, 0, 0, 0, 0, 0, 0, 0, 0, 0, 0, 0, 0, 0, 0, 0, 0, 0, 0, 0, 0]","[0, 0, 0, 0, 0, 0, 0, 0, 0, 0, 0, 0, 0, 0, 0, 0, -1, -3, -5, -7, -10, -14, -20, -26, -31, -35, -38, -39, -40, -40, -40, -40, -37, -32, -20, -4, 14, 35, 56, 79, 103, 124, 142, 158, 174, 188, 203, 216, 226, 233, 238, 241, 243, 243, 243, 240, 230, 216, 198, 177, 156, 136, 115, 96, 80, 66, 54, 45, 35, 27, 23, 20, 18, 17, 16, 16, 15, 15, 15, 16, 17, 18, 19, 19, 19, 19, 19, 17, 15, 15, 14]","[0, 0, 0, 0, 0, 0, 0, 0, 0, 0, 0, 0, 0, 0, 0, 0, 0, 0, 0, 0, 0, 0, 0, 0, 0, 0]","[0, 0, 0, 0, 0, 0, 0, 0, 0, 0, 0, 0, 0, 0, 0, 0, 0, 0, 0, 0, 0, 0, 0, 0, -1, -1, -1, -1, -1, -3, -7, -13, -18, -22, -27, -31, -34, -37, -38, -40, -41, -43, -46, -47, -48, -48, -46, -42, -39, -38, -37, -37, -37, -37, -39, -43, -51, -63, -79, -98, -115, -131, -149, -165, -180, -195, -210, -223, -238, -251, -262, -270, -276, -281, -286, -289, -293, -296, -298, -300, -301, -302, -302, -302, -302, -302, -304, -307, -309, -311, -311]"
"100","100","718.894736842","718.894736842","black","no","prac","4","legacy","legacy","w.png","g.png","w.png","w.png","2","legacy","0","relative","1","undefined","NA","green","NA","undefined","1","undefined","undefined","green","2","0","3","0","18","0","NA","18","18","18","18","18","0","18","18","18","18","0","4","NA","NA","18","0","0","0","0","0","0","0","18","12/24/20 09:38:24","Default description","yes","simont_HV.osexp","C:\Users\admin\Desktop\채은\!MouseTracking_final","no","sans","no","18","no","black","no","yes","768","170","None","170","None","legacy","18","18","1","C:/Users/admin/Desktop/채은/!MouseTracking_final/subject-41.csv","legacy","2","2","2","Kafkaesque Koffka","3.2.6","0","green","space","NA","None","green","start","space","NA","NA","NA","NA","995","93507","NA","250","995","491","19428","NA","NA","NA","NA","2","legacy","1024","2","48000","-16","experiment","41","odd","legacy","red","green","blue","yellow","1","21651","NA","NA","171075","2217","NA","169324","169828","170080","168832","NA","2221","171095","172095","169828","170080","NA","NA","NA","NA","168832","NA","NA","NA","NA","NA","NA","115158","168830","[169829.0, 169839.0, 169849.0, 169859.0, 169869.0, 169879.0, 169889.0, 169899.0, 169909.0, 169919.0, 169929.0, 169939.0, 169949.0, 169959.0, 169969.0, 169979.0, 169989.0, 169999.0, 170009.0, 170019.0, 170029.0, 170039.0, 170049.0, 170059.0, 170069.0, 170079.0]","[170080.0, 170090.0, 170100.0, 170110.0, 170120.0, 170130.0, 170140.0, 170150.0, 170160.0, 170170.0, 170180.0, 170190.0, 170200.0, 170210.0, 170220.0, 170230.0, 170240.0, 170250.0, 170260.0, 170270.0, 170280.0, 170290.0, 170300.0, 170310.0, 170320.0, 170330.0, 170340.0, 170350.0, 170360.0, 170370.0, 170380.0, 170390.0, 170400.0, 170410.0, 170420.0, 170430.0, 170440.0, 170450.0, 170460.0, 170470.0, 170480.0, 170490.0, 170500.0, 170510.0, 170520.0, 170530.0, 170540.0, 170550.0, 170560.0, 170570.0, 170580.0, 170590.0, 170600.0, 170610.0, 170620.0, 170630.0, 170640.0, 170650.0, 170660.0, 170670.0, 170680.0, 170690.0, 170700.0, 170710.0, 170720.0, 170730.0, 170740.0, 170750.0, 170760.0, 170770.0, 170780.0, 170790.0, 170800.0, 170810.0, 170820.0, 170830.0, 170840.0, 170850.0, 170860.0, 170870.0, 170880.0, 170890.0, 170900.0, 170910.0, 170920.0, 170930.0, 170940.0, 170950.0, 170960.0, 170970.0, 170980.0, 170990.0, 171000.0, 171010.0, 171020.0, 171030.0, 171040.0, 171050.0, 171060.0, 171070.0, 171075]","example_experiment","19","13659","19","yes","768","4","[0, 0, 0, 0, 0, 0, 0, 0, 0, 0, 0, 0, 0, 0, 0, 0, 0, 0, 0, 0, 0, 0, 0, 0, 0, 0]","[0, 0, 0, 0, 0, 0, 0, 0, 0, 0, 0, 0, 0, 0, 0, 0, 0, 0, 1, 3, 7, 10, 14, 19, 24, 29, 31, 32, 32, 32, 29, 25, 20, 14, 7, 1, -5, -9, -14, -17, -20, -23, -25, -26, -26, -26, -25, -24, -23, -22, -21, -20, -20, -19, -18, -18, -14, -4, 8, 26, 47, 79, 113, 150, 188, 225, 260, 290, 317, 337, 354, 366, 373, 377, 378, 378, 378, 377, 375, 373, 372, 371, 371, 370, 370, 369, 369, 367, 366, 362, 356, 351, 347, 343, 340, 338, 338, 338, 338, 338, 338]","[0, 0, 0, 0, 0, 0, 0, 0, 0, 0, 0, 0, 0, 0, 0, 0, 0, 0, 0, 0, 0, 0, 0, 0, 0, 0]","[0, 0, 0, 0, 0, 0, 0, 0, 0, 0, 0, 0, 0, 0, 0, 0, 0, 0, 0, 0, 0, 0, 1, 1, 3, 5, 8, 13, 19, 27, 39, 53, 73, 95, 118, 140, 160, 180, 198, 216, 229, 241, 253, 262, 269, 276, 282, 287, 293, 298, 302, 306, 309, 310, 310, 310, 308, 303, 294, 280, 262, 235, 210, 182, 154, 126, 99, 75, 52, 34, 20, 9, 2, -3, -6, -7, -7, -7, -7, -7, -7, -7, -7, -7, -7, -7, -6, -6, -5, -3, -1, 1, 3, 5, 6, 7, 7, 7, 7, 7, 7]"
"100","100","725.85","725.85","black","no","prac","3","legacy","legacy","y.png","w.png","w.png","w.png","2","legacy","0","relative","1","undefined","NA","yellow","NA","undefined","1","undefined","undefined","yellow","4","0","3","0","19","0","NA","19","19","19","19","19","0","19","19","19","19","0","4","NA","NA","19","0","0","0","0","0","0","0","19","12/24/20 09:38:24","Default description","yes","simont_HV.osexp","C:\Users\admin\Desktop\채은\!MouseTracking_final","no","sans","no","18","no","black","no","yes","768","160","None","160","0","legacy","19","19","2","C:/Users/admin/Desktop/채은/!MouseTracking_final/subject-41.csv","legacy","1","2","2","Kafkaesque Koffka","3.2.6","0","yellow","space","NA","None","yellow","start","space","NA","NA","NA","NA","858","93507","NA","250","858","404","19428","NA","NA","NA","NA","2","legacy","1024","2","48000","-16","experiment","41","odd","legacy","red","green","blue","yellow","2","21651","NA","NA","174236","2217","NA","172622","173126","173378","172217","NA","2221","174255","175255","173126","173378","NA","NA","NA","NA","172217","NA","NA","NA","NA","NA","NA","115158","172216","[173127.0, 173137.0, 173147.0, 173157.0, 173167.0, 173177.0, 173187.0, 173197.0, 173207.0, 173217.0, 173227.0, 173237.0, 173247.0, 173257.0, 173267.0, 173277.0, 173287.0, 173297.0, 173307.0, 173317.0, 173327.0, 173337.0, 173347.0, 173357.0, 173367.0, 173377.0]","[173378.0, 173388.0, 173398.0, 173408.0, 173418.0, 173428.0, 173438.0, 173448.0, 173458.0, 173468.0, 173478.0, 173488.0, 173498.0, 173508.0, 173518.0, 173528.0, 173538.0, 173548.0, 173558.0, 173568.0, 173578.0, 173588.0, 173598.0, 173608.0, 173618.0, 173628.0, 173638.0, 173648.0, 173658.0, 173668.0, 173678.0, 173688.0, 173698.0, 173708.0, 173718.0, 173728.0, 173738.0, 173748.0, 173758.0, 173768.0, 173778.0, 173788.0, 173798.0, 173808.0, 173818.0, 173828.0, 173838.0, 173848.0, 173858.0, 173868.0, 173878.0, 173888.0, 173898.0, 173908.0, 173918.0, 173928.0, 173938.0, 173948.0, 173958.0, 173968.0, 173978.0, 173988.0, 173998.0, 174008.0, 174018.0, 174028.0, 174038.0, 174048.0, 174058.0, 174068.0, 174078.0, 174088.0, 174098.0, 174108.0, 174118.0, 174128.0, 174138.0, 174148.0, 174158.0, 174168.0, 174178.0, 174188.0, 174198.0, 174208.0, 174218.0, 174228.0, 174236]","example_experiment","20","14517","20","yes","768","3","[0, 0, 0, 0, 0, 0, 0, 0, 0, 0, 0, 0, 0, 0, 0, 0, 0, 0, 0, 0, 0, 0, 0, 0, 0, 0]","[0, 0, 0, 0, 0, 0, 0, 0, 0, 0, 0, 0, 0, 0, 0, 0, 0, -1, -1, -2, -3, -4, -4, -5, -5, -5, -5, -5, -5, -5, -5, -3, -3, -2, 0, 2, 6, 13, 21, 29, 37, 42, 45, 47, 45, 37, 26, 12, 0, -11, -17, -24, -28, -30, -31, -31, -31, -31, -31, -31, -31, -31, -30, -27, -24, -22, -19, -16, -13, -10, -8, -4, -1, 1, 3, 4, 5, 5, 6, 6, 8, 9, 10, 11, 11, 11, 11]","[0, 0, 0, 0, 0, 0, 0, 0, 0, 0, 0, 0, 0, 0, 0, 0, 0, 0, 0, 0, 0, 0, 0, 0, 0, 0]","[0, 0, 0, 0, 0, 0, 0, 0, 0, 0, 0, 0, 0, 0, 0, 0, 0, 0, 0, 0, 0, 0, 0, 0, 0, 0, 0, 0, 0, -2, -5, -7, -9, -12, -14, -16, -19, -21, -23, -23, -23, -18, -10, 5, 22, 44, 66, 89, 114, 135, 152, 168, 182, 191, 196, 199, 201, 201, 202, 203, 204, 208, 214, 222, 230, 239, 247, 253, 259, 264, 269, 274, 279, 285, 290, 295, 300, 306, 313, 318, 322, 326, 328, 330, 330, 330, 330]"
"100","100","716.523809524","716.523809524","black","no","prac","2","legacy","legacy","w.png","w.png","r.png","w.png","1","legacy","0","relative","1","undefined","NA","red","NA","undefined","1","undefined","undefined","red","1","0","3","0","20","0","NA","20","20","20","20","20","0","20","20","20","20","0","4","NA","NA","20","0","0","0","0","0","0","0","20","12/24/20 09:38:24","Default description","yes","simont_HV.osexp","C:\Users\admin\Desktop\채은\!MouseTracking_final","no","sans","no","18","no","black","no","yes","768","90","None","90","None","legacy","20","20","2","C:/Users/admin/Desktop/채은/!MouseTracking_final/subject-41.csv","legacy","2","1","2","Kafkaesque Koffka","3.2.6","0","red","space","NA","None","red","start","space","NA","NA","NA","NA","530","93507","NA","250","530","614","19428","NA","NA","NA","NA","2","legacy","1024","2","48000","-16","experiment","41","odd","legacy","red","green","blue","yellow","1","21651","NA","NA","177274","2217","NA","175988","176492","176744","175372","NA","2221","177305","178305","176492","176744","NA","NA","NA","NA","175372","NA","NA","NA","NA","NA","NA","115158","175370","[176493.0, 176503.0, 176513.0, 176523.0, 176533.0, 176543.0, 176553.0, 176563.0, 176573.0, 176583.0, 176593.0, 176603.0, 176613.0, 176623.0, 176633.0, 176643.0, 176653.0, 176663.0, 176673.0, 176683.0, 176693.0, 176703.0, 176713.0, 176723.0, 176733.0, 176743.0]","[176744.0, 176754.0, 176764.0, 176774.0, 176784.0, 176794.0, 176804.0, 176814.0, 176824.0, 176834.0, 176844.0, 176854.0, 176864.0, 176874.0, 176884.0, 176894.0, 176904.0, 176914.0, 176924.0, 176934.0, 176944.0, 176954.0, 176964.0, 176974.0, 176984.0, 176994.0, 177004.0, 177014.0, 177024.0, 177034.0, 177044.0, 177054.0, 177064.0, 177074.0, 177084.0, 177094.0, 177104.0, 177114.0, 177124.0, 177134.0, 177144.0, 177154.0, 177164.0, 177174.0, 177184.0, 177194.0, 177204.0, 177214.0, 177224.0, 177234.0, 177244.0, 177254.0, 177264.0, 177274.0, 177274]","example_experiment","21","15047","21","yes","768","4","[0, 0, 0, 0, 0, 0, 0, 0, 0, 0, 0, 0, 0, 0, 0, 0, 0, 0, 0, 0, 0, 0, 0, 0, 0, 0]","[0, 0, 0, 0, 0, 0, 0, 0, 0, 0, -3, -6, -10, -16, -23, -36, -49, -65, -81, -97, -115, -133, -150, -166, -182, -198, -209, -216, -222, -226, -228, -229, -231, -233, -236, -239, -243, -247, -250, -253, -257, -262, -268, -276, -286, -296, -306, -314, -321, -327, -331, -331, -331, -331, -331]","[0, 0, 0, 0, 0, 0, 0, 0, 0, 0, 0, 0, 0, 0, 0, 0, 0, 0, 0, 0, 0, 0, 0, 0, 0, 0]","[0, 0, 0, 0, 0, 0, 0, 0, 0, 0, 0, 0, 0, 1, 1, 1, 2, 2, 2, 3, 3, 4, 4, 4, 4, 4, 4, 5, 5, 5, 5, 5, 5, 5, 5, 5, 5, 6, 6, 6, 6, 6, 6, 5, 3, 2, 0, 0, -1, -1, -1, -2, -2, -2, -2]"
"100","100","715.681818182","715.681818182","black","no","prac","4","legacy","legacy","w.png","w.png","w.png","y.png","2","legacy","0","relative","1","undefined","NA","yellow","NA","undefined","1","undefined","undefined","yellow","4","0","3","0","21","0","NA","21","21","21","21","21","0","21","21","21","21","0","4","NA","NA","21","0","0","0","0","0","0","0","21","12/24/20 09:38:24","Default description","yes","simont_HV.osexp","C:\Users\admin\Desktop\채은\!MouseTracking_final","no","sans","no","18","no","black","no","yes","768","80","None","80","None","legacy","21","21","1","C:/Users/admin/Desktop/채은/!MouseTracking_final/subject-41.csv","legacy","2","2","1","Kafkaesque Koffka","3.2.6","0","yellow","space","NA","None","yellow","start","space","NA","NA","NA","NA","698","93507","NA","250","698","361","19428","NA","NA","NA","NA","2","legacy","1024","2","48000","-16","experiment","41","odd","legacy","red","green","blue","yellow","2","21651","NA","NA","180235","2217","NA","178781","179285","179537","178419","NA","2221","180245","181245","179285","179537","NA","NA","NA","NA","178419","NA","NA","NA","NA","NA","NA","115158","178418","[179286.0, 179296.0, 179306.0, 179316.0, 179326.0, 179336.0, 179346.0, 179356.0, 179366.0, 179376.0, 179386.0, 179396.0, 179406.0, 179416.0, 179426.0, 179436.0, 179446.0, 179456.0, 179466.0, 179476.0, 179486.0, 179496.0, 179506.0, 179516.0, 179526.0, 179536.0]","[179537.0, 179547.0, 179557.0, 179567.0, 179577.0, 179587.0, 179597.0, 179607.0, 179617.0, 179627.0, 179637.0, 179647.0, 179657.0, 179667.0, 179677.0, 179687.0, 179697.0, 179707.0, 179717.0, 179727.0, 179737.0, 179747.0, 179757.0, 179767.0, 179777.0, 179787.0, 179797.0, 179807.0, 179817.0, 179827.0, 179837.0, 179847.0, 179857.0, 179867.0, 179877.0, 179887.0, 179897.0, 179907.0, 179917.0, 179927.0, 179937.0, 179947.0, 179957.0, 179967.0, 179977.0, 179987.0, 179997.0, 180007.0, 180017.0, 180027.0, 180037.0, 180047.0, 180057.0, 180067.0, 180077.0, 180087.0, 180097.0, 180107.0, 180117.0, 180127.0, 180137.0, 180147.0, 180157.0, 180167.0, 180177.0, 180187.0, 180197.0, 180207.0, 180217.0, 180227.0, 180235]","example_experiment","22","15745","22","yes","768","2","[0, 0, 0, 0, 0, 0, 0, 0, 0, 0, 0, 0, 0, 0, 0, 0, 0, 0, 0, 0, 0, 0, 0, 0, 0, 0]","[0, 0, 0, 0, 0, 0, 0, 0, 0, -3, -8, -14, -22, -30, -40, -48, -55, -61, -66, -70, -71, -72, -72, -72, -72, -69, -65, -60, -56, -49, -44, -39, -36, -34, -32, -28, -23, -18, -14, -9, -5, 0, 5, 10, 16, 24, 32, 37, 41, 46, 49, 50, 51, 51, 52, 52, 52, 52, 51, 47, 38, 31, 25, 20, 17, 14, 12, 11, 11, 11, 11]","[0, 0, 0, 0, 0, 0, 0, 0, 0, 0, 0, 0, 0, 0, 0, 0, 0, 0, 0, 0, 0, 0, 0, 0, 0, 0]","[0, 0, 0, 0, 0, 0, 0, 0, 0, 1, 3, 4, 6, 7, 7, 8, 9, 10, 10, 10, 10, 10, 10, 10, 10, 11, 14, 18, 24, 33, 46, 60, 76, 96, 117, 139, 162, 181, 197, 212, 227, 238, 249, 257, 268, 278, 288, 296, 303, 310, 316, 319, 322, 323, 324, 324, 324, 324, 324, 324, 321, 320, 320, 320, 321, 321, 322, 322, 322, 322, 322]"
"100","100","731.695652174","731.695652174","black","no","prac","4","legacy","legacy","w.png","g.png","w.png","w.png","2","legacy","0","relative","1","undefined","NA","green","NA","undefined","1","undefined","undefined","green","2","0","3","0","22","0","NA","22","22","22","22","22","0","22","22","22","22","0","4","NA","NA","22","0","0","0","0","0","0","0","22","12/24/20 09:38:24","Default description","yes","simont_HV.osexp","C:\Users\admin\Desktop\채은\!MouseTracking_final","no","sans","no","18","no","black","no","yes","768","160","None","160","None","legacy","22","22","1","C:/Users/admin/Desktop/채은/!MouseTracking_final/subject-41.csv","legacy","2","2","2","Kafkaesque Koffka","3.2.6","0","green","space","NA","None","green","start","space","NA","NA","NA","NA","1084","93507","NA","250","1084","340","19428","NA","NA","NA","NA","2","legacy","1024","2","48000","-16","experiment","41","odd","legacy","red","green","blue","yellow","1","21651","NA","NA","183530","2217","NA","181690","182194","182446","181348","NA","2221","183535","184535","182194","182446","NA","NA","NA","NA","181348","NA","NA","NA","NA","NA","NA","115158","181347","[182195.0, 182205.0, 182215.0, 182225.0, 182235.0, 182245.0, 182255.0, 182265.0, 182275.0, 182285.0, 182295.0, 182305.0, 182315.0, 182325.0, 182335.0, 182345.0, 182355.0, 182365.0, 182375.0, 182385.0, 182395.0, 182405.0, 182415.0, 182425.0, 182435.0, 182445.0]","[182446.0, 182456.0, 182466.0, 182476.0, 182486.0, 182496.0, 182506.0, 182516.0, 182526.0, 182536.0, 182546.0, 182556.0, 182566.0, 182576.0, 182586.0, 182596.0, 182606.0, 182616.0, 182626.0, 182636.0, 182646.0, 182656.0, 182666.0, 182676.0, 182686.0, 182696.0, 182706.0, 182716.0, 182726.0, 182736.0, 182746.0, 182756.0, 182766.0, 182776.0, 182786.0, 182796.0, 182806.0, 182816.0, 182826.0, 182836.0, 182846.0, 182856.0, 182866.0, 182876.0, 182886.0, 182896.0, 182906.0, 182916.0, 182926.0, 182936.0, 182946.0, 182956.0, 182966.0, 182976.0, 182986.0, 182996.0, 183006.0, 183016.0, 183026.0, 183036.0, 183046.0, 183056.0, 183066.0, 183076.0, 183086.0, 183096.0, 183106.0, 183116.0, 183126.0, 183136.0, 183146.0, 183156.0, 183166.0, 183176.0, 183186.0, 183196.0, 183206.0, 183216.0, 183226.0, 183236.0, 183246.0, 183256.0, 183266.0, 183276.0, 183286.0, 183296.0, 183306.0, 183316.0, 183326.0, 183336.0, 183346.0, 183356.0, 183366.0, 183376.0, 183386.0, 183396.0, 183406.0, 183416.0, 183426.0, 183436.0, 183446.0, 183456.0, 183466.0, 183476.0, 183486.0, 183496.0, 183506.0, 183516.0, 183526.0, 183530]","example_experiment","23","16829","23","yes","768","4","[0, 0, 0, 0, 0, 0, 0, 0, 0, 0, 0, 0, 0, 0, 0, 0, 0, 0, 0, 0, 0, 0, 0, 0, 0, 0]","[0, 0, 0, 0, 0, 0, 0, 0, 0, 0, 0, 0, 0, 0, 0, 0, 0, -2, -7, -14, -22, -33, -49, -64, -80, -91, -100, -108, -113, -117, -121, -122, -123, -123, -123, -119, -114, -109, -102, -96, -88, -81, -73, -66, -58, -49, -41, -35, -28, -20, -15, -11, -9, -9, -9, -9, -10, -10, -10, -10, -10, -6, 1, 16, 32, 53, 80, 111, 147, 184, 224, 261, 300, 331, 357, 381, 399, 410, 415, 417, 417, 417, 416, 413, 412, 410, 409, 408, 408, 405, 400, 394, 384, 375, 365, 354, 345, 336, 328, 322, 317, 314, 312, 311, 311, 311, 311, 311, 311, 311]","[0, 0, 0, 0, 0, 0, 0, 0, 0, 0, 0, 0, 0, 0, 0, 0, 0, 0, 0, 0, 0, 0, 0, 0, 0, 0]","[0, 0, 0, 0, 0, 0, 0, 0, 0, 0, 0, 0, 0, 0, 0, 0, 0, 0, 0, 2, 4, 4, 5, 5, 6, 7, 8, 9, 10, 10, 11, 12, 12, 14, 15, 18, 21, 25, 29, 34, 40, 47, 55, 63, 72, 81, 89, 96, 104, 113, 122, 131, 140, 150, 162, 173, 182, 189, 194, 196, 196, 196, 192, 181, 169, 152, 131, 108, 82, 57, 32, 9, -14, -33, -48, -61, -70, -74, -77, -78, -78, -78, -78, -76, -74, -72, -72, -71, -71, -71, -69, -68, -63, -57, -49, -42, -37, -32, -27, -24, -21, -18, -16, -15, -15, -15, -15, -15, -15, -15]"
"100","100","742.666666667","742.666666667","black","no","prac","3","legacy","legacy","w.png","w.png","w.png","b.png","1","legacy","0","relative","1","undefined","NA","blue","NA","undefined","1","undefined","undefined","blue","3","0","3","0","23","0","NA","23","23","23","23","23","0","23","23","23","23","0","4","NA","NA","23","0","0","0","0","0","0","0","23","12/24/20 09:38:24","Default description","yes","simont_HV.osexp","C:\Users\admin\Desktop\채은\!MouseTracking_final","no","sans","no","18","no","black","no","yes","768","150","None","150","20","legacy","23","23","1","C:/Users/admin/Desktop/채은/!MouseTracking_final/subject-41.csv","legacy","1","2","2","Kafkaesque Koffka","3.2.6","0","blue","space","NA","None","blue","start","space","NA","NA","NA","NA","995","93507","NA","250","995","391","19428","NA","NA","NA","NA","2","legacy","1024","2","48000","-16","experiment","41","odd","legacy","red","green","blue","yellow","2","21651","NA","NA","186797","2217","NA","185046","185550","185802","184654","NA","2221","186815","187815","185550","185802","NA","NA","NA","NA","184654","NA","NA","NA","NA","NA","NA","115158","184652","[185551.0, 185561.0, 185571.0, 185581.0, 185591.0, 185601.0, 185611.0, 185621.0, 185631.0, 185641.0, 185651.0, 185661.0, 185671.0, 185681.0, 185691.0, 185701.0, 185711.0, 185721.0, 185731.0, 185741.0, 185751.0, 185761.0, 185771.0, 185781.0, 185791.0, 185801.0]","[185802.0, 185812.0, 185822.0, 185832.0, 185842.0, 185852.0, 185862.0, 185872.0, 185882.0, 185892.0, 185902.0, 185912.0, 185922.0, 185932.0, 185942.0, 185952.0, 185962.0, 185972.0, 185982.0, 185992.0, 186002.0, 186012.0, 186022.0, 186032.0, 186042.0, 186052.0, 186062.0, 186072.0, 186082.0, 186092.0, 186102.0, 186112.0, 186122.0, 186132.0, 186142.0, 186152.0, 186162.0, 186172.0, 186182.0, 186192.0, 186202.0, 186212.0, 186222.0, 186232.0, 186242.0, 186252.0, 186262.0, 186272.0, 186282.0, 186292.0, 186302.0, 186312.0, 186322.0, 186332.0, 186342.0, 186352.0, 186362.0, 186372.0, 186382.0, 186392.0, 186402.0, 186412.0, 186422.0, 186432.0, 186442.0, 186448, 186458.0, 186468.0, 186478.0, 186488.0, 186498.0, 186508.0, 186518.0, 186528.0, 186538.0, 186548.0, 186558.0, 186568.0, 186578.0, 186588.0, 186598.0, 186608.0, 186618.0, 186628.0, 186638.0, 186648.0, 186658.0, 186668.0, 186678.0, 186688.0, 186698.0, 186708.0, 186718.0, 186728.0, 186738.0, 186748.0, 186758.0, 186768.0, 186778.0, 186788.0, 186797]","example_experiment","24","17824","24","yes","768","3","[0, 0, 0, 0, 0, 0, 0, 0, 0, 0, 0, 0, 0, 0, 0, 0, 0, 0, 0, 0, 0, 0, 0, 0, 0, 0]","[0, 0, 0, 0, 0, 0, 0, 0, 0, 0, 0, 0, 0, 0, 0, 0, 0, -1, -1, -2, -2, -2, -2, -2, -2, -2, -2, -2, -2, -2, -2, -2, -2, -2, -2, -2, -2, -2, -2, -1, -1, 0, 0, 0, 0, 0, 0, 0, 0, 1, 1, 1, 1, 2, 2, 2, 2, 2, 2, 2, 3, 3, 4, 5, 5, 6, 6, 6, 6, 6, 6, 6, 6, 6, 6, 6, 6, 6, 6, 6, 6, 6, 6, 6, 6, 5, 4, 4, 4, 4, 4, 4, 4, 4, 4, 4, 3, 2, 1, 0, 0]","[0, 0, 0, 0, 0, 0, 0, 0, 0, 0, 0, 0, 0, 0, 0, 0, 0, 0, 0, 0, 0, 0, 0, 0, 0, 0]","[0, 0, 0, 0, 0, 0, 0, 0, 0, 0, 0, 0, 0, 0, 0, 0, 1, 1, 2, 2, 2, 2, 2, 2, 2, 2, 2, 2, 2, 2, -6, -17, -32, -47, -67, -87, -109, -128, -147, -161, -174, -186, -196, -204, -212, -217, -220, -223, -225, -228, -231, -234, -237, -240, -243, -245, -247, -249, -251, -255, -258, -263, -268, -272, -277, -278, -278, -279, -279, -279, -279, -279, -279, -279, -279, -279, -279, -279, -279, -279, -279, -278, -275, -272, -269, -266, -264, -264, -264, -264, -264, -264, -265, -268, -271, -275, -279, -284, -287, -289, -289]"
"100","100","732.12","732.12","black","no","prac","1","legacy","legacy","w.png","r.png","w.png","w.png","1","legacy","0","relative","1","undefined","NA","red","NA","undefined","1","undefined","undefined","red","1","0","3","0","24","0","NA","24","24","24","24","24","0","24","24","24","24","0","4","NA","NA","24","0","0","0","0","0","0","0","24","12/24/20 09:38:24","Default description","yes","simont_HV.osexp","C:\Users\admin\Desktop\채은\!MouseTracking_final","no","sans","no","18","no","black","no","yes","768","30","None","30","None","legacy","24","24","1","C:/Users/admin/Desktop/채은/!MouseTracking_final/subject-41.csv","legacy","1","1","2","Kafkaesque Koffka","3.2.6","0","red","space","NA","None","red","start","space","NA","NA","NA","NA","479","93507","NA","250","479","249","19428","NA","NA","NA","NA","2","legacy","1024","2","48000","-16","experiment","41","odd","legacy","red","green","blue","yellow","1","21651","NA","NA","189404","2217","NA","188169","188673","188925","187919","NA","2221","189415","190415","188673","188925","NA","NA","NA","NA","187919","NA","NA","NA","NA","NA","NA","115158","187918","[188674.0, 188684.0, 188694.0, 188704.0, 188714.0, 188724.0, 188734.0, 188744.0, 188754.0, 188764.0, 188774.0, 188784.0, 188794.0, 188804.0, 188814.0, 188824.0, 188834.0, 188844.0, 188854.0, 188864.0, 188874.0, 188884.0, 188894.0, 188904.0, 188914.0, 188924.0]","[188925.0, 188935.0, 188945.0, 188955.0, 188965.0, 188975.0, 188985.0, 188995.0, 189005.0, 189015.0, 189025.0, 189035.0, 189045.0, 189055.0, 189065.0, 189075.0, 189085.0, 189095.0, 189105.0, 189115.0, 189125.0, 189135.0, 189145.0, 189155.0, 189165.0, 189175.0, 189185.0, 189195.0, 189205.0, 189215.0, 189225.0, 189235.0, 189245.0, 189255.0, 189265.0, 189275.0, 189285.0, 189295.0, 189305.0, 189315.0, 189325.0, 189335.0, 189345.0, 189355.0, 189365.0, 189375.0, 189385.0, 189395.0, 189404]","example_experiment","25","18303","25","yes","768","3","[0, 0, 0, 0, 0, 0, 0, 0, 0, 0, 0, 0, 0, 0, 0, 0, 0, 0, 0, 0, 0, 0, 0, 0, 0, 0]","[0, 0, 0, 0, -2, -6, -13, -21, -32, -47, -62, -78, -92, -108, -125, -141, -155, -168, -178, -186, -193, -198, -202, -205, -209, -212, -215, -219, -221, -226, -229, -233, -238, -245, -254, -264, -273, -281, -288, -295, -303, -308, -314, -318, -321, -322, -324, -324, -324]","[0, 0, 0, 0, 0, 0, 0, 0, 0, 0, 0, 0, 0, 0, 0, 0, 0, 0, 0, 0, 0, 0, 0, 0, 0, 0]","[0, 0, 0, 0, 1, 2, 3, 3, 4, 6, 8, 8, 9, 9, 9, 9, 8, 8, 7, 7, 6, 6, 6, 6, 5, 5, 5, 5, 5, 5, 5, 5, 5, 5, 4, 3, 2, 1, 1, 1, 1, 0, -1, -2, -2, -2, -2, -2, -2]"
"100","100","721.769230769","721.769230769","black","no","prac","2","legacy","legacy","w.png","w.png","w.png","y.png","2","legacy","0","relative","1","undefined","NA","yellow","NA","undefined","1","undefined","undefined","yellow","4","0","3","0","25","0","NA","25","25","25","25","25","0","25","25","25","25","0","4","NA","NA","25","0","0","0","0","0","0","0","25","12/24/20 09:38:24","Default description","yes","simont_HV.osexp","C:\Users\admin\Desktop\채은\!MouseTracking_final","no","sans","no","18","no","black","no","yes","768","20","None","20","None","legacy","25","25","1","C:/Users/admin/Desktop/채은/!MouseTracking_final/subject-41.csv","legacy","2","1","1","Kafkaesque Koffka","3.2.6","0","yellow","space","NA","None","yellow","start","space","NA","NA","NA","NA","463","93507","NA","250","463","278","19428","NA","NA","NA","NA","2","legacy","1024","2","48000","-16","experiment","41","odd","legacy","red","green","blue","yellow","2","21651","NA","NA","192029","2217","NA","190810","191314","191566","190531","NA","2221","192045","193045","191314","191566","NA","NA","NA","NA","190531","NA","NA","NA","NA","NA","NA","115158","190529","[191315.0, 191325.0, 191335.0, 191345.0, 191355.0, 191365.0, 191375.0, 191385.0, 191395.0, 191405.0, 191415.0, 191425.0, 191435.0, 191445.0, 191455.0, 191465.0, 191475.0, 191485.0, 191495.0, 191505.0, 191515.0, 191525.0, 191535.0, 191545.0, 191555.0, 191565.0]","[191566.0, 191576.0, 191586.0, 191596.0, 191606.0, 191616.0, 191626.0, 191636.0, 191646.0, 191656.0, 191666.0, 191676.0, 191686.0, 191696.0, 191706.0, 191716.0, 191726.0, 191736.0, 191746.0, 191756.0, 191766.0, 191776.0, 191786.0, 191796.0, 191806.0, 191816.0, 191826.0, 191836.0, 191846.0, 191856.0, 191866.0, 191876.0, 191886.0, 191896.0, 191906.0, 191916.0, 191926.0, 191936.0, 191946.0, 191956.0, 191966.0, 191976.0, 191986.0, 191996.0, 192006.0, 192016.0, 192026.0, 192029]","example_experiment","26","18766","26","yes","768","2","[0, 0, 0, 0, 0, 0, 0, 0, 0, 0, 0, 0, 0, 0, 0, 0, 0, 0, 0, 0, 0, 0, 0, 0, 0, 0]","[0, 0, 0, 0, 0, 0, -1, -2, -4, -6, -8, -10, -11, -11, -11, -11, -10, -10, -9, -8, -8, -7, -6, -6, -6, -6, -6, -6, -6, -6, -6, -6, -6, -6, -6, -6, -6, -7, -7, -7, -8, -8, -8, -8, -8, -8, -8, -8]","[0, 0, 0, 0, 0, 0, 0, 0, 0, 0, 0, 0, 0, 0, 0, 0, 0, 0, 0, 0, 0, 0, 0, 0, 0, 0]","[0, 0, 0, 1, 5, 10, 17, 26, 37, 49, 62, 74, 83, 91, 97, 102, 105, 108, 113, 119, 125, 136, 147, 162, 178, 193, 209, 222, 237, 250, 263, 275, 288, 299, 309, 317, 325, 330, 336, 340, 344, 346, 346, 346, 346, 346, 346, 346]"
"100","100","727","727","black","no","prac","3","legacy","legacy","w.png","w.png","g.png","w.png","2","legacy","0","relative","1","undefined","NA","green","NA","undefined","1","undefined","undefined","green","2","0","3","0","26","0","NA","26","26","26","26","26","0","26","26","26","26","0","4","NA","NA","26","0","0","0","0","0","0","0","26","12/24/20 09:38:24","Default description","yes","simont_HV.osexp","C:\Users\admin\Desktop\채은\!MouseTracking_final","no","sans","no","18","no","black","no","yes","768","250","None","250","None","legacy","26","26","2","C:/Users/admin/Desktop/채은/!MouseTracking_final/subject-41.csv","legacy","1","2","1","Kafkaesque Koffka","3.2.6","0","green","space","NA","None","green","start","space","NA","NA","NA","NA","863","93507","NA","250","863","237","19428","NA","NA","NA","NA","2","legacy","1024","2","48000","-16","experiment","41","odd","legacy","red","green","blue","yellow","1","21651","NA","NA","195019","2217","NA","193400","193904","194156","193161","NA","2221","195025","196025","193904","194156","NA","NA","NA","NA","193161","NA","NA","NA","NA","NA","NA","115158","193160","[193905.0, 193915.0, 193925.0, 193935.0, 193945.0, 193955.0, 193965.0, 193975.0, 193985.0, 193995.0, 194005.0, 194015.0, 194025.0, 194035.0, 194045.0, 194055.0, 194065.0, 194075.0, 194085.0, 194095.0, 194105.0, 194115.0, 194125.0, 194135.0, 194145.0, 194155.0]","[194156.0, 194166.0, 194176.0, 194186.0, 194196.0, 194206.0, 194216.0, 194226.0, 194236.0, 194246.0, 194256.0, 194266.0, 194276.0, 194286.0, 194296.0, 194306.0, 194316.0, 194326.0, 194336.0, 194346.0, 194356.0, 194366.0, 194376.0, 194386.0, 194396.0, 194406.0, 194416.0, 194426.0, 194436.0, 194446.0, 194456.0, 194466.0, 194476.0, 194486.0, 194496.0, 194506.0, 194516.0, 194526.0, 194536.0, 194546.0, 194556.0, 194566.0, 194576.0, 194586.0, 194596.0, 194606.0, 194616.0, 194626.0, 194636.0, 194646.0, 194656.0, 194666.0, 194676.0, 194686.0, 194696.0, 194706.0, 194716.0, 194726.0, 194736.0, 194746.0, 194756.0, 194766.0, 194776.0, 194786.0, 194796.0, 194806.0, 194816.0, 194826.0, 194836.0, 194846.0, 194856.0, 194866.0, 194876.0, 194886.0, 194896.0, 194906.0, 194916.0, 194926.0, 194936.0, 194946.0, 194956.0, 194966.0, 194976.0, 194986.0, 194996.0, 195006.0, 195016.0, 195019]","example_experiment","27","19629","27","yes","768","1","[0, 0, 0, 0, 0, 0, 0, 0, 0, 0, 0, 0, 0, 0, 0, 0, 0, 0, 0, 0, 0, 0, 0, 0, 0, 0]","[0, 0, 0, 0, 0, 0, 0, 0, 0, 0, 0, 0, 0, 0, 0, 0, 0, 0, 0, 0, 0, 0, 0, 0, 0, 0, 0, 0, 0, 0, 2, 7, 13, 21, 31, 42, 50, 58, 64, 66, 67, 67, 67, 67, 67, 70, 72, 76, 79, 82, 88, 97, 109, 127, 146, 169, 192, 220, 250, 277, 305, 329, 348, 362, 372, 378, 381, 381, 381, 381, 379, 378, 377, 375, 373, 371, 369, 366, 362, 356, 349, 339, 333, 329, 326, 325, 325, 325]","[0, 0, 0, 0, 0, 0, 0, 0, 0, 0, 0, 0, 0, 0, 0, 0, 0, 0, 0, 0, 0, 0, 0, 0, 0, 0]","[0, 0, 0, 0, 0, 0, 0, 0, 0, 0, 0, 0, 0, 0, 0, 0, 0, 0, 0, 0, 0, 0, 0, 0, 0, 0, -4, -8, -11, -16, -20, -24, -27, -29, -30, -30, -27, -23, -16, -6, 5, 20, 34, 47, 55, 59, 62, 63, 63, 62, 59, 54, 46, 35, 23, 9, -4, -16, -27, -33, -37, -39, -39, -39, -37, -34, -32, -31, -29, -27, -25, -25, -24, -22, -22, -21, -20, -18, -17, -17, -17, -17, -17, -15, -14, -13, -13, -13]"
"100","100","717.857142857","717.857142857","black","no","prac","2","legacy","legacy","b.png","w.png","w.png","w.png","1","legacy","0","relative","1","undefined","NA","blue","NA","undefined","1","undefined","undefined","blue","3","0","3","0","27","0","NA","27","27","27","27","27","0","27","27","27","27","0","4","NA","NA","27","0","0","0","0","0","0","0","27","12/24/20 09:38:24","Default description","yes","simont_HV.osexp","C:\Users\admin\Desktop\채은\!MouseTracking_final","no","sans","no","18","no","black","no","yes","768","30","None","30","None","legacy","27","27","2","C:/Users/admin/Desktop/채은/!MouseTracking_final/subject-41.csv","legacy","2","1","2","Kafkaesque Koffka","3.2.6","0","blue","space","NA","None","blue","start","space","NA","NA","NA","NA","471","93507","NA","250","471","371","19428","NA","NA","NA","NA","2","legacy","1024","2","48000","-16","experiment","41","odd","legacy","red","green","blue","yellow","2","21651","NA","NA","197747","2217","NA","196520","197024","197276","196148","NA","2221","197755","198755","197024","197276","NA","NA","NA","NA","196147","NA","NA","NA","NA","NA","NA","115158","196146","[197025.0, 197035.0, 197045.0, 197055.0, 197065.0, 197075.0, 197085.0, 197095.0, 197105.0, 197115.0, 197125.0, 197135.0, 197145.0, 197155.0, 197165.0, 197175.0, 197185.0, 197195.0, 197205.0, 197215.0, 197225.0, 197235.0, 197245.0, 197255.0, 197265.0, 197275.0]","[197276.0, 197286.0, 197296.0, 197306.0, 197316.0, 197326.0, 197336.0, 197346.0, 197356.0, 197366.0, 197376.0, 197386.0, 197396.0, 197406.0, 197416.0, 197426.0, 197436.0, 197446.0, 197456.0, 197466.0, 197476.0, 197486.0, 197496.0, 197506.0, 197516.0, 197526.0, 197536.0, 197546.0, 197556.0, 197566.0, 197576.0, 197586.0, 197596.0, 197606.0, 197616.0, 197626.0, 197636.0, 197646.0, 197656.0, 197666.0, 197676.0, 197686.0, 197696.0, 197706.0, 197716.0, 197726.0, 197736.0, 197746.0, 197747]","example_experiment","28","20100","28","yes","768","4","[0, 0, 0, 0, 0, 0, 0, 0, 0, 0, 0, 0, 0, 0, 0, 0, 0, 0, 0, 0, 0, 0, 0, 0, 0, 0]","[0, 0, 0, 0, 0, -1, -3, -4, -6, -9, -10, -11, -11, -11, -11, -11, -11, -12, -12, -11, -9, -4, 1, 4, 8, 10, 13, 15, 17, 19, 20, 21, 22, 22, 22, 22, 21, 20, 18, 17, 16, 15, 15, 15, 15, 15, 15, 15, 15]","[0, 0, 0, 0, 0, 0, 0, 0, 0, 0, 0, 0, 0, 0, 0, 0, 0, 0, 0, 0, 0, 0, 0, 0, 0, 0]","[0, 0, 0, 0, 4, 10, 16, 23, 30, 36, 40, 42, 42, 42, 42, 42, 34, 21, 4, -15, -40, -68, -99, -126, -154, -177, -200, -219, -235, -251, -263, -273, -283, -292, -298, -306, -311, -317, -321, -324, -326, -327, -327, -327, -327, -327, -327, -327, -327]"
"100","100","712.034482759","712.034482759","black","no","prac","4","legacy","legacy","b.png","w.png","w.png","w.png","1","legacy","0","relative","1","undefined","NA","blue","NA","undefined","1","undefined","undefined","blue","3","0","3","0","28","0","NA","28","28","28","28","28","0","28","28","28","28","0","4","NA","NA","28","0","0","0","0","0","0","0","28","12/24/20 09:38:24","Default description","yes","simont_HV.osexp","C:\Users\admin\Desktop\채은\!MouseTracking_final","no","sans","no","18","no","black","no","yes","768","120","None","120","None","legacy","28","28","2","C:/Users/admin/Desktop/채은/!MouseTracking_final/subject-41.csv","legacy","2","2","2","Kafkaesque Koffka","3.2.6","0","blue","space","NA","None","blue","start","space","NA","NA","NA","NA","549","93507","NA","250","549","250","19428","NA","NA","NA","NA","2","legacy","1024","2","48000","-16","experiment","41","odd","legacy","red","green","blue","yellow","2","21651","NA","NA","200420","2217","NA","199115","199619","199871","198864","NA","2221","200425","201425","199619","199871","NA","NA","NA","NA","198864","NA","NA","NA","NA","NA","NA","115158","198862","[199620.0, 199630.0, 199640.0, 199650.0, 199660.0, 199670.0, 199680.0, 199690.0, 199700.0, 199710.0, 199720.0, 199730.0, 199740.0, 199750.0, 199760.0, 199770.0, 199780.0, 199790.0, 199800.0, 199810.0, 199820.0, 199830.0, 199840.0, 199850.0, 199860.0, 199870.0]","[199871.0, 199881.0, 199891.0, 199901.0, 199911.0, 199921.0, 199931.0, 199941.0, 199951.0, 199961.0, 199971.0, 199981.0, 199991.0, 200001.0, 200011.0, 200021.0, 200031.0, 200041.0, 200051.0, 200061.0, 200071.0, 200081.0, 200091.0, 200101.0, 200111.0, 200121.0, 200131.0, 200141.0, 200151.0, 200161.0, 200171.0, 200181.0, 200191.0, 200201.0, 200211.0, 200221.0, 200231.0, 200241.0, 200251.0, 200261.0, 200271.0, 200281.0, 200291.0, 200301.0, 200311.0, 200321.0, 200331.0, 200341.0, 200351.0, 200361.0, 200371.0, 200381.0, 200391.0, 200401.0, 200411.0, 200420]","example_experiment","29","20649","29","yes","768","4","[0, 0, 0, 0, 0, 0, 0, 0, 0, 0, 0, 0, 0, 0, 0, 0, 0, 0, 0, 0, 0, 0, 0, 0, 0, 0]","[0, 0, 0, 0, 0, 0, 0, 0, 0, 0, 0, 0, 0, 0, 0, 0, 1, 2, 5, 7, 10, 13, 16, 19, 21, 21, 21, 20, 20, 20, 20, 20, 20, 20, 20, 20, 20, 20, 19, 19, 19, 19, 19, 19, 19, 17, 16, 13, 12, 10, 10, 9, 9, 9, 9, 9]","[0, 0, 0, 0, 0, 0, 0, 0, 0, 0, 0, 0, 0, 0, 0, 0, 0, 0, 0, 0, 0, 0, 0, 0, 0, 0]","[0, 0, 0, 0, 0, 0, 0, 0, 0, 0, 0, 0, 0, 1, 2, 3, 4, 4, 3, -4, -14, -26, -42, -60, -80, -101, -124, -146, -166, -183, -196, -208, -217, -224, -229, -234, -237, -241, -244, -246, -249, -251, -254, -257, -261, -265, -270, -275, -280, -285, -290, -294, -297, -300, -302, -302]"
"100","100","718.233333333","718.233333333","black","no","prac","3","legacy","legacy","w.png","w.png","g.png","w.png","2","legacy","0","relative","1","undefined","NA","green","NA","undefined","1","undefined","undefined","green","2","0","3","0","29","0","NA","29","29","29","29","29","0","29","29","29","29","0","4","NA","NA","29","0","0","0","0","0","0","0","29","12/24/20 09:38:24","Default description","yes","simont_HV.osexp","C:\Users\admin\Desktop\채은\!MouseTracking_final","no","sans","no","18","no","black","no","yes","768","150","None","150","None","legacy","29","29","2","C:/Users/admin/Desktop/채은/!MouseTracking_final/subject-41.csv","legacy","1","2","2","Kafkaesque Koffka","3.2.6","0","green","space","NA","None","green","start","space","NA","NA","NA","NA","898","93507","NA","250","898","404","19428","NA","NA","NA","NA","2","legacy","1024","2","48000","-16","experiment","41","odd","legacy","red","green","blue","yellow","1","21651","NA","NA","203593","2217","NA","201939","202443","202695","201534","NA","2221","203605","204605","202443","202695","NA","NA","NA","NA","201534","NA","NA","NA","NA","NA","NA","115158","201533","[202444.0, 202454.0, 202464.0, 202474.0, 202484.0, 202494.0, 202504.0, 202514.0, 202524.0, 202534.0, 202544.0, 202554.0, 202564.0, 202574.0, 202584.0, 202594.0, 202604.0, 202614.0, 202624.0, 202634.0, 202644.0, 202654.0, 202664.0, 202674.0, 202684.0, 202694.0]","[202695.0, 202705.0, 202715.0, 202725.0, 202735.0, 202745.0, 202755.0, 202765.0, 202775.0, 202785.0, 202795.0, 202805.0, 202815.0, 202825.0, 202835.0, 202845.0, 202855.0, 202865.0, 202875.0, 202885.0, 202895.0, 202905.0, 202915.0, 202925.0, 202935.0, 202945.0, 202955.0, 202965.0, 202975.0, 202985.0, 202995.0, 203005.0, 203015.0, 203025.0, 203035.0, 203045.0, 203055.0, 203065.0, 203075.0, 203085.0, 203095.0, 203105.0, 203115.0, 203125.0, 203135.0, 203145.0, 203155.0, 203165.0, 203175.0, 203185.0, 203191, 203201.0, 203211.0, 203221.0, 203231.0, 203241.0, 203251.0, 203261.0, 203271.0, 203281.0, 203291.0, 203301.0, 203311.0, 203321.0, 203331.0, 203341.0, 203351.0, 203361.0, 203371.0, 203381.0, 203391.0, 203401.0, 203411.0, 203421.0, 203431.0, 203441.0, 203451.0, 203461.0, 203471.0, 203481.0, 203491.0, 203501.0, 203511.0, 203521.0, 203531.0, 203541.0, 203551.0, 203561.0, 203571.0, 203581.0, 203591.0, 203593]","example_experiment","30","21547","30","yes","768","3","[0, 0, 0, 0, 0, 0, 0, 0, 0, 0, 0, 0, 0, 0, 0, 0, 0, 0, 0, 0, 0, 0, 0, 0, 0, 0]","[0, 0, 0, 0, 0, 0, 0, 0, 0, 0, 0, 0, 0, 0, 0, 0, 3, 11, 28, 48, 70, 95, 120, 142, 166, 188, 212, 231, 246, 260, 269, 275, 278, 278, 278, 278, 278, 278, 278, 278, 278, 278, 278, 278, 279, 281, 283, 284, 285, 286, 286, 286, 286, 286, 286, 286, 286, 286, 286, 286, 286, 286, 286, 286, 286, 286, 286, 285, 284, 283, 281, 280, 278, 276, 276, 275, 275, 275, 275, 275, 275, 275, 275, 278, 284, 291, 297, 304, 309, 314, 316, 316]","[0, 0, 0, 0, 0, 0, 0, 0, 0, 0, 0, 0, 0, 0, 0, 0, 0, 0, 0, 0, 0, 0, 0, 0, 0, 0]","[0, 0, 0, 0, 0, 0, 0, 0, 0, 0, 0, 0, 0, 0, 0, 0, 0, 1, 6, 11, 15, 18, 19, 19, 19, 19, 19, 19, 19, 19, 19, 19, 19, 19, 19, 19, 19, 19, 19, 19, 19, 19, 19, 19, 19, 19, 18, 17, 16, 16, 16, 16, 16, 15, 15, 15, 15, 15, 15, 15, 15, 15, 15, 15, 15, 15, 15, 15, 15, 15, 14, 14, 14, 14, 14, 14, 14, 14, 14, 14, 14, 14, 14, 15, 16, 17, 17, 17, 17, 17, 17, 17]"
"100","100","706.258064516","706.258064516","black","no","block1","0","legacy","legacy","w.png","r.png","w.png","w.png","1","legacy","0","relative","1","undefined","NA","red","NA","undefined","1","undefined","undefined","red","1","0","3","0","30","0","NA","30","30","30","30","30","0","30","30","30","30","0","4","NA","NA","30","0","0","0","0","0","0","0","30","12/24/20 09:38:24","Default description","yes","simont_HV.osexp","C:\Users\admin\Desktop\채은\!MouseTracking_final","no","sans","no","18","no","black","no","yes","768","0","120","0","None","legacy","0","29","1","C:/Users/admin/Desktop/채은/!MouseTracking_final/subject-41.csv","legacy","1","0","0","Kafkaesque Koffka","3.2.6","0","red","space","NA","None","red","start","space","space","NA","NA","NA","347","93507","NA","250","347","910","19428","24392","NA","NA","NA","2","legacy","1024","2","48000","-16","experiment","41","odd","legacy","red","green","blue","yellow","1","21651","NA","NA","231114","2217","NA","230011","230515","230767","229100","NA","2221","231125","232125","230515","230767","204643","NA","NA","NA","229100","229036","NA","NA","NA","NA","NA","115158","229099","[230516.0, 230526.0, 230536.0, 230546.0, 230556.0, 230566.0, 230576.0, 230586.0, 230596.0, 230606.0, 230616.0, 230626.0, 230636.0, 230646.0, 230656.0, 230666.0, 230676.0, 230686.0, 230696.0, 230706.0, 230716.0, 230726.0, 230736.0, 230746.0, 230756.0, 230766.0]","[230767.0, 230777.0, 230787.0, 230797.0, 230807.0, 230817.0, 230827.0, 230837.0, 230847.0, 230857.0, 230867.0, 230877.0, 230887.0, 230897.0, 230907.0, 230917.0, 230927.0, 230937.0, 230947.0, 230957.0, 230967.0, 230977.0, 230987.0, 230997.0, 231007.0, 231017.0, 231027.0, 231037.0, 231047.0, 231057.0, 231067.0, 231077.0, 231087.0, 231097.0, 231107.0, 231114]","example_experiment","31","21894","31","yes","768","0","[0, 0, 0, 0, 0, 0, 0, 0, 0, 0, 0, 0, 0, -1, -1, -2, -2, -3, -6, -14, -23, -33, -48, -63, -80, -98]","[-101, -117, -136, -154, -171, -187, -199, -209, -216, -222, -227, -230, -233, -235, -239, -242, -245, -250, -254, -258, -262, -265, -269, -273, -279, -287, -294, -299, -303, -305, -308, -311, -314, -317, -319, -319]","[0, 0, 0, 0, 0, 0, 0, 0, 0, 0, 0, 0, 0, 0, 0, 0, 0, 0, 0, 0, 0, 0, -1, -1, -1, -1]","[-1, -1, -1, -1, -1, -1, -1, -1, -1, -1, -1, -1, -1, -1, -1, -2, -2, -2, -2, -2, -2, -2, -2, -2, -2, -2, -2, -2, -2, -2, -2, -2, -2, -2, -2, -1]"
"100","100","692.65625","692.65625","black","no","block1","0","legacy","legacy","w.png","w.png","w.png","b.png","1","legacy","0","relative","1","undefined","NA","blue","NA","undefined","1","undefined","undefined","blue","3","0","3","0","31","0","NA","31","31","31","31","31","0","31","31","31","31","0","4","NA","NA","31","0","0","0","0","0","0","0","31","12/24/20 09:38:24","Default description","yes","simont_HV.osexp","C:\Users\admin\Desktop\채은\!MouseTracking_final","no","sans","no","18","no","black","no","yes","768","0","220","0","None","legacy","1","29","1","C:/Users/admin/Desktop/채은/!MouseTracking_final/subject-41.csv","legacy","1","1","0","Kafkaesque Koffka","3.2.6","0","blue","space","NA","None","blue","start","space","space","NA","NA","NA","271","93507","NA","250","271","295","19428","24392","NA","NA","NA","2","legacy","1024","2","48000","-16","experiment","41","odd","legacy","red","green","blue","yellow","2","21651","NA","NA","233569","2217","NA","232542","233046","233298","232246","NA","2221","233575","234575","233046","233298","204643","NA","NA","NA","232245","229036","NA","NA","NA","NA","NA","115158","232244","[233047.0, 233057.0, 233067.0, 233077.0, 233087.0, 233097.0, 233107.0, 233117.0, 233127.0, 233137.0, 233147.0, 233157.0, 233167.0, 233177.0, 233187.0, 233197.0, 233207.0, 233217.0, 233227.0, 233237.0, 233247.0, 233257.0, 233267.0, 233277.0, 233287.0, 233297.0]","[233298.0, 233308.0, 233318.0, 233328.0, 233338.0, 233348.0, 233358.0, 233368.0, 233378.0, 233388.0, 233398.0, 233408.0, 233418.0, 233428.0, 233438.0, 233448.0, 233458.0, 233468.0, 233478.0, 233488.0, 233498.0, 233508.0, 233518.0, 233528.0, 233538.0, 233548.0, 233558.0, 233568.0, 233569]","example_experiment","32","22165","32","yes","768","0","[0, 0, 0, 0, 0, 0, 0, 0, 0, 0, 0, 0, 0, 0, 0, 0, 0, 0, 0, 0, 0, 0, 0, 0, 0, 0]","[0, 0, 0, 0, 0, 1, 2, 3, 3, 5, 5, 5, 6, 6, 7, 7, 7, 7, 8, 9, 9, 9, 9, 9, 9, 8, 8, 8, 8]","[0, 0, 0, 0, 0, 0, 0, 0, 0, 0, 0, 0, 0, 0, 0, 0, 0, 0, 0, 0, 0, 0, 0, -1, -7, -16]","[-18, -31, -48, -71, -93, -115, -140, -162, -181, -201, -216, -231, -244, -255, -265, -272, -279, -284, -287, -289, -289, -289, -290, -292, -293, -295, -295, -296, -296]"
"100","100","681.696969697","681.696969697","black","no","block1","1","legacy","legacy","w.png","r.png","w.png","w.png","1","legacy","0","relative","1","undefined","NA","red","NA","undefined","1","undefined","undefined","red","1","0","3","0","32","0","NA","32","32","32","32","32","0","32","32","32","32","0","4","NA","NA","32","0","0","0","0","0","0","0","32","12/24/20 09:38:24","Default description","yes","simont_HV.osexp","C:\Users\admin\Desktop\채은\!MouseTracking_final","no","sans","no","18","no","black","no","yes","768","0","0","0","160","legacy","2","29","1","C:/Users/admin/Desktop/채은/!MouseTracking_final/subject-41.csv","legacy","1","1","1","Kafkaesque Koffka","3.2.6","0","red","space","NA","None","red","start","space","space","NA","NA","NA","331","93507","NA","250","331","277","19428","24392","NA","NA","NA","2","legacy","1024","2","48000","-16","experiment","41","odd","legacy","red","green","blue","yellow","1","21651","NA","NA","236065","2217","NA","234978","235482","235734","234700","NA","2221","236075","237075","235482","235734","204643","NA","NA","NA","234700","229036","NA","NA","NA","NA","NA","115158","234698","[235483.0, 235493.0, 235503.0, 235513.0, 235523.0, 235533.0, 235543.0, 235553.0, 235563.0, 235573.0, 235583.0, 235593.0, 235603.0, 235613.0, 235623.0, 235633.0, 235643.0, 235653.0, 235663.0, 235673.0, 235683.0, 235693.0, 235703.0, 235713.0, 235723.0, 235733.0]","[235734.0, 235744.0, 235754.0, 235764.0, 235774.0, 235784.0, 235794.0, 235804.0, 235814.0, 235824.0, 235834.0, 235844.0, 235854.0, 235864.0, 235874.0, 235884.0, 235894.0, 235904.0, 235914.0, 235924.0, 235934.0, 235944.0, 235954.0, 235964.0, 235974.0, 235984.0, 235994.0, 236004.0, 236014.0, 236024.0, 236034.0, 236044.0, 236054.0, 236064.0, 236065]","example_experiment","33","22496","33","yes","768","1","[0, 3, 6, 10, 13, 17, 21, 23, 26, 28, 31, 35, 39, 42, 45, 46, 46, 46, 46, 43, 35, 22, 4, -17, -38, -60]","[-64, -82, -103, -123, -143, -166, -185, -204, -220, -234, -249, -265, -277, -288, -296, -302, -308, -313, -317, -320, -322, -323, -323, -323, -323, -323, -322, -321, -321, -318, -315, -311, -306, -304, -303]","[0, 0, 0, 0, 0, 0, 0, 0, 0, 0, 0, 0, 0, 0, 0, 0, 0, 0, 0, 0, -2, -6, -11, -15, -19, -21]","[-21, -22, -22, -22, -22, -23, -23, -23, -23, -23, -23, -23, -23, -23, -23, -23, -23, -23, -23, -23, -23, -22, -22, -21, -21, -20, -20, -20, -19, -18, -16, -13, -11, -9, -9]"
