"acc","accuracy","average_response_time","avg_rt","background","bidi","block","btwC","canvas_backend","clock_backend","colD","colL","colR","colU","color","color_backend","compensation","coordinates","correct","correct_answerins","correct_button_get_response_bef","correct_button_get_response_pos","correct_button_get_start_click","correct_get_response_bef","correct_get_response_pos","correct_get_start_click","correct_instructions","correct_resp","correctkey","count_answerins","count_break1","count_break3","count_correct_f","count_experiment","count_feedback","count_fixation500s","count_get_response_bef","count_get_response_pos","count_get_start_click","count_incorrect_f","count_instructions","count_iti1000","count_logger","count_present_stimulus","count_present_stimulus2","count_start_gogo","count_start_gogo_1","count_start_gogo_1_1","count_start_gogo_1_2","count_start_screen","count_stimuli1","count_stimuli2","count_stimuli3","count_stimuli4","count_stimuli5","count_stimuli6","count_stimuli_prac","count_trial","datetime","description","disable_garbage_collection","experiment_file","experiment_path","font_bold","font_family","font_italic","font_size","font_underline","foreground","form_clicks","fullscreen","height","initiation_time","initiation_time_get_response_bef","initiation_time_get_response_pos","initiation_time_get_start_click","keyboard_backend","live_row","live_row_stimuli_prac","loc","logfile","mouse_backend","n0","n1","n2","opensesame_codename","opensesame_version","repeat_cycle","response","response_answerins","response_feedback","response_get_response_bef","response_get_response_pos","response_get_start_click","response_instructions","response_start_gogo","response_start_gogo_1","response_start_gogo_1_1","response_start_gogo_1_2","response_time","response_time_answerins","response_time_feedback","response_time_get_response_bef","response_time_get_response_pos","response_time_get_start_click","response_time_instructions","response_time_start_gogo","response_time_start_gogo_1","response_time_start_gogo_1_1","response_time_start_gogo_1_2","round_decimals","sampler_backend","sound_buf_size","sound_channels","sound_freq","sound_sample_size","start","subject_nr","subject_parity","synth_backend","tar1L","tar2R","tar3U","tar4D","taskType","time_answerins","time_break1","time_break3","time_correct_f","time_experiment","time_feedback","time_fixation500s","time_get_response_bef","time_get_response_pos","time_get_start_click","time_incorrect_f","time_instructions","time_iti1000","time_logger","time_present_stimulus","time_present_stimulus2","time_start_gogo","time_start_gogo_1","time_start_gogo_1_1","time_start_gogo_1_2","time_start_screen","time_stimuli1","time_stimuli2","time_stimuli3","time_stimuli4","time_stimuli5","time_stimuli6","time_stimuli_prac","time_trial","timestamps_get_response_bef","timestamps_get_response_pos","title","total_correct","total_response_time","total_responses","uniform_coordinates","width","withC","xpos_get_response_bef","xpos_get_response_pos","ypos_get_response_bef","ypos_get_response_pos"
"100","100","1199","1199","black","no","prac","0","legacy","legacy","w.png","w.png","r.png","w.png","1","legacy","0","relative","1","undefined","NA","red","NA","undefined","1","undefined","undefined","red","1","0","3","0","0","0","NA","0","0","0","0","0","0","0","0","0","0","0","4","NA","NA","0","0","0","0","0","0","0","0","0","11/02/20 16:41:52","Default description","yes","simont_HV.osexp","C:\Users\admin\Desktop\채은\!MouseTracking_final","no","sans","no","18","no","black","no","yes","768","330","None","330","0","legacy","0","0","2","C:/Users/admin/Desktop/채은/!MouseTracking_final/subject-19.csv","legacy","2","0","0","Kafkaesque Koffka","3.2.6","0","red","space","NA","None","red","start","space","NA","NA","NA","NA","1199","92835","NA","250","1199","1110","26301","NA","NA","NA","NA","2","legacy","1024","2","48000","-16","experiment","19","odd","legacy","red","green","blue","yellow","1","27786","NA","NA","123754","1480","NA","121800","122304","122555","120689","NA","1484","123771","124771","122303","122555","NA","NA","NA","NA","120689","NA","NA","NA","NA","NA","NA","120622","120687","[122304.0, 122314.0, 122324.0, 122334.0, 122344.0, 122354.0, 122364.0, 122374.0, 122384.0, 122394.0, 122404.0, 122414.0, 122424.0, 122434.0, 122444.0, 122454.0, 122464.0, 122474.0, 122484.0, 122494.0, 122504.0, 122514.0, 122524.0, 122534.0, 122544.0, 122554.0]","[122555.0, 122565.0, 122575.0, 122585.0, 122595.0, 122605.0, 122615.0, 122625.0, 122635.0, 122645.0, 122655.0, 122665.0, 122675.0, 122685.0, 122695.0, 122705.0, 122715.0, 122725.0, 122735.0, 122745.0, 122755.0, 122765.0, 122775.0, 122785.0, 122795.0, 122805.0, 122815.0, 122825.0, 122835.0, 122845.0, 122855.0, 122865.0, 122875.0, 122885.0, 122895.0, 122905.0, 122915.0, 122925.0, 122935.0, 122945.0, 122955.0, 122965.0, 122975.0, 122985.0, 122995.0, 123005.0, 123015.0, 123025.0, 123035.0, 123045.0, 123055.0, 123065.0, 123075.0, 123085.0, 123095.0, 123105.0, 123115.0, 123125.0, 123135.0, 123145.0, 123155.0, 123165.0, 123175.0, 123185.0, 123195.0, 123205.0, 123215.0, 123225.0, 123235.0, 123245.0, 123255.0, 123265.0, 123275.0, 123285.0, 123295.0, 123305.0, 123315.0, 123325.0, 123335.0, 123345.0, 123348, 123358.0, 123368.0, 123378.0, 123388.0, 123398.0, 123408.0, 123418.0, 123428.0, 123438.0, 123448.0, 123458.0, 123468.0, 123478.0, 123488.0, 123498.0, 123508.0, 123518.0, 123528.0, 123538.0, 123548.0, 123558.0, 123568.0, 123578.0, 123588.0, 123598.0, 123608.0, 123618.0, 123628.0, 123638.0, 123648.0, 123658.0, 123668.0, 123678.0, 123688.0, 123698.0, 123708.0, 123718.0, 123728.0, 123738.0, 123748.0, 123754]","example_experiment","1","1199","1","yes","768","0","[0, 0, 0, 0, 0, 0, 0, 0, 0, 0, 0, 0, 0, 0, 0, 0, 0, 0, 0, 0, 0, 0, 0, 0, 0, 0]","[0, 0, 0, 0, 0, 0, 0, 0, 0, 0, 0, 0, 0, 0, 0, 0, 0, 0, 0, 0, 0, 0, 0, 0, 0, 0, 0, 0, 0, 0, 0, 0, 0, 0, -2, -8, -14, -24, -37, -50, -69, -85, -95, -106, -114, -122, -129, -135, -139, -142, -145, -148, -152, -156, -163, -171, -180, -191, -201, -207, -214, -219, -226, -235, -244, -253, -260, -265, -269, -270, -272, -273, -276, -280, -284, -287, -287, -287, -287, -287, -287, -287, -287, -287, -287, -287, -287, -287, -287, -287, -287, -287, -287, -287, -287, -287, -289, -291, -291, -291, -291, -291, -291, -291, -291, -291, -291, -291, -291, -291, -291, -291, -291, -291, -291, -291, -291, -291, -291, -291, -291, -291]","[0, 0, 0, 0, 0, 0, 0, 0, 0, 0, 0, 0, 0, 0, 0, 0, 0, 0, 0, 0, 0, 0, 0, 0, 0, 0]","[0, 0, 0, 0, 0, 0, 0, 0, 0, 0, 0, 0, 0, 0, 0, 0, 0, 0, 0, 0, 0, 0, 0, 0, 0, 0, 0, 0, 0, 0, 0, 0, 0, 0, 1, 2, 3, 3, 3, 3, 3, 3, 3, 3, 3, 1, 0, -1, -2, -2, -2, -2, -2, -2, -2, -2, -2, -2, -2, -2, -3, -4, -4, -5, -6, -6, -6, -6, -7, -7, -7, -7, -7, -7, -7, -6, -6, -6, -6, -6, -6, -6, -6, -6, -6, -6, -6, -6, -6, -6, -6, -6, -6, -6, -6, -6, -6, -5, -5, -5, -5, -5, -5, -5, -5, -5, -5, -5, -5, -5, -5, -5, -5, -5, -5, -5, -5, -5, -5, -5, -5, -5]"
"100","100","1458.5","1458.5","black","no","prac","0","legacy","legacy","w.png","w.png","w.png","b.png","1","legacy","0","relative","1","undefined","NA","blue","NA","undefined","1","undefined","undefined","blue","3","0","3","0","1","0","NA","1","1","1","1","1","0","1","1","1","1","0","4","NA","NA","1","0","0","0","0","0","0","0","1","11/02/20 16:41:52","Default description","yes","simont_HV.osexp","C:\Users\admin\Desktop\채은\!MouseTracking_final","no","sans","no","18","no","black","no","yes","768","1350","None","1350","None","legacy","1","1","1","C:/Users/admin/Desktop/채은/!MouseTracking_final/subject-19.csv","legacy","1","2","0","Kafkaesque Koffka","3.2.6","0","blue","space","NA","None","blue","start","space","NA","NA","NA","NA","1718","92835","NA","250","1718","957","26301","NA","NA","NA","NA","2","legacy","1024","2","48000","-16","experiment","19","odd","legacy","red","green","blue","yellow","2","27786","NA","NA","128327","1480","NA","125854","126357","126609","124896","NA","1484","128331","129331","126357","126609","NA","NA","NA","NA","124896","NA","NA","NA","NA","NA","NA","120622","124895","[126358.0, 126368.0, 126378.0, 126388.0, 126398.0, 126408.0, 126418.0, 126428.0, 126438.0, 126448.0, 126458.0, 126468.0, 126478.0, 126488.0, 126498.0, 126508.0, 126518.0, 126528.0, 126538.0, 126548.0, 126558.0, 126568.0, 126578.0, 126588.0, 126598.0, 126608.0]","[126609.0, 126619.0, 126629.0, 126639.0, 126649.0, 126659.0, 126669.0, 126679.0, 126689.0, 126699.0, 126709.0, 126719.0, 126729.0, 126739.0, 126749.0, 126759.0, 126769.0, 126779.0, 126789.0, 126799.0, 126809.0, 126819.0, 126829.0, 126839.0, 126849.0, 126859.0, 126869.0, 126879.0, 126889.0, 126899.0, 126909.0, 126919.0, 126929.0, 126939.0, 126949.0, 126959.0, 126969.0, 126979.0, 126989.0, 126999.0, 127009.0, 127019.0, 127029.0, 127039.0, 127049.0, 127059.0, 127069.0, 127079.0, 127089.0, 127099.0, 127109.0, 127119.0, 127129.0, 127139.0, 127149.0, 127159.0, 127169.0, 127179.0, 127189.0, 127199.0, 127209.0, 127219.0, 127229.0, 127239.0, 127249.0, 127259.0, 127269.0, 127279.0, 127289.0, 127299.0, 127309.0, 127319.0, 127329.0, 127339.0, 127349.0, 127359.0, 127369.0, 127379.0, 127389.0, 127399.0, 127409.0, 127419.0, 127429.0, 127439.0, 127449.0, 127459.0, 127469.0, 127479.0, 127489.0, 127499.0, 127509.0, 127519.0, 127529.0, 127539.0, 127549.0, 127559.0, 127569.0, 127579.0, 127589.0, 127599.0, 127609.0, 127619.0, 127629.0, 127639.0, 127649.0, 127659.0, 127669.0, 127679.0, 127689.0, 127699.0, 127709.0, 127719.0, 127729.0, 127739.0, 127749.0, 127759.0, 127769.0, 127779.0, 127789.0, 127799.0, 127809.0, 127819.0, 127829.0, 127839.0, 127849.0, 127859.0, 127869.0, 127879.0, 127889.0, 127899.0, 127909.0, 127919.0, 127929.0, 127939.0, 127949.0, 127959.0, 127969.0, 127979.0, 127989.0, 127999.0, 128009.0, 128019.0, 128029.0, 128039.0, 128049.0, 128059.0, 128069.0, 128079.0, 128089.0, 128099.0, 128109.0, 128119.0, 128129.0, 128139.0, 128149.0, 128159.0, 128169.0, 128179.0, 128189.0, 128199.0, 128209.0, 128219.0, 128229.0, 128239.0, 128249.0, 128259.0, 128269.0, 128279.0, 128289.0, 128299.0, 128309.0, 128319.0, 128327]","example_experiment","2","2917","2","yes","768","0","[0, 0, 0, 0, 0, 0, 0, 0, 0, 0, 0, 0, 0, 0, 0, 0, 0, 0, 0, 0, 0, 0, 0, 0, 0, 0]","[0, 0, 0, 0, 0, 0, 0, 0, 0, 0, 0, 0, 0, 0, 0, 0, 0, 0, 0, 0, 0, 0, 0, 0, 0, 0, 0, 0, 0, 0, 0, 0, 0, 0, 0, 0, 0, 0, 0, 0, 0, 0, 0, 0, 0, 0, 0, 0, 0, 0, 0, 0, 0, 0, 0, 0, 0, 0, 0, 0, 0, 0, 0, 0, 0, 0, 0, 0, 0, 0, 0, 0, 0, 0, 0, 0, 0, 0, 0, 0, 0, 0, 0, 0, 0, 0, 0, 0, 0, 0, 0, 0, 0, 0, 0, 0, 0, 0, 0, 0, 0, 0, 0, 0, 0, 0, 0, 0, 0, 0, 0, 0, 0, 0, 0, 0, 0, 0, 0, 0, 0, 0, 0, 0, 0, 0, 0, 0, 0, 0, 0, 0, 0, 0, 0, 0, 1, 1, 3, 4, 8, 12, 15, 19, 21, 23, 24, 24, 25, 26, 27, 27, 27, 27, 27, 26, 25, 24, 24, 24, 23, 23, 22, 20, 17, 14, 11, 9, 8, 8, 7, 7, 7]","[0, 0, 0, 0, 0, 0, 0, 0, 0, 0, 0, 0, 0, 0, 0, 0, 0, 0, 0, 0, 0, 0, 0, 0, 0, 0]","[0, 0, 0, 0, 0, 0, 0, 0, 0, 0, 0, 0, 0, 0, 0, 0, 0, 0, 0, 0, 0, 0, 0, 0, 0, 0, 0, 0, 0, 0, 0, 0, 0, 0, 0, 0, 0, 0, 0, 0, 0, 0, 0, 0, 0, 0, 0, 0, 0, 0, 0, 0, 0, 0, 0, 0, 0, 0, 0, 0, 0, 0, 0, 0, 0, 0, 0, 0, 0, 0, 0, 0, 0, 0, 0, 0, 0, 0, 0, 0, 0, 0, 0, 0, 0, 0, 0, 0, 0, 0, 0, 0, 0, 0, 0, 0, 0, 0, 0, 0, 0, 0, 0, 0, 0, 0, 0, 0, 0, 0, 0, 0, 0, 0, 0, 0, 0, 0, 0, 0, 0, 0, 0, 0, 0, 0, 0, 0, 0, 0, 0, 0, 0, 0, 0, 0, -1, -3, -7, -13, -24, -40, -60, -87, -117, -148, -175, -206, -234, -257, -277, -297, -312, -322, -332, -336, -339, -340, -340, -340, -340, -337, -333, -328, -324, -320, -319, -319, -319, -319, -321, -322, -323]"
"100","100","1173.66666667","1173.66666667","black","no","prac","2","legacy","legacy","w.png","g.png","w.png","w.png","2","legacy","0","relative","1","undefined","NA","green","NA","undefined","1","undefined","undefined","green","2","0","3","0","2","0","NA","2","2","2","2","2","0","2","2","2","2","0","4","NA","NA","2","0","0","0","0","0","0","0","2","11/02/20 16:41:52","Default description","yes","simont_HV.osexp","C:\Users\admin\Desktop\채은\!MouseTracking_final","no","sans","no","18","no","black","no","yes","768","170","None","170","None","legacy","2","2","1","C:/Users/admin/Desktop/채은/!MouseTracking_final/subject-19.csv","legacy","2","1","2","Kafkaesque Koffka","3.2.6","0","green","space","NA","None","green","start","space","NA","NA","NA","NA","604","92835","NA","250","604","855","26301","NA","NA","NA","NA","2","legacy","1024","2","48000","-16","experiment","19","odd","legacy","red","green","blue","yellow","1","27786","NA","NA","131661","1480","NA","130301","130805","131057","129445","NA","1484","131681","132681","130805","131057","NA","NA","NA","NA","129445","NA","NA","NA","NA","NA","NA","120622","129444","[130806.0, 130816.0, 130826.0, 130836.0, 130846.0, 130856.0, 130866.0, 130876.0, 130886.0, 130896.0, 130906.0, 130916.0, 130926.0, 130936.0, 130946.0, 130956.0, 130966.0, 130976.0, 130986.0, 130996.0, 131006.0, 131016.0, 131026.0, 131036.0, 131046.0, 131056.0]","[131057.0, 131067.0, 131077.0, 131087.0, 131097.0, 131107.0, 131117.0, 131127.0, 131137.0, 131147.0, 131157.0, 131167.0, 131177.0, 131187.0, 131197.0, 131207.0, 131217.0, 131227.0, 131237.0, 131247.0, 131257.0, 131267.0, 131277.0, 131287.0, 131297.0, 131307.0, 131317.0, 131327.0, 131337.0, 131347.0, 131357.0, 131367.0, 131377.0, 131387.0, 131397.0, 131407.0, 131417.0, 131427.0, 131437.0, 131447.0, 131457.0, 131467.0, 131477.0, 131487.0, 131497.0, 131507.0, 131517.0, 131527.0, 131537.0, 131547.0, 131557.0, 131567.0, 131577.0, 131587.0, 131597.0, 131607.0, 131617.0, 131627.0, 131637.0, 131647.0, 131657.0, 131661]","example_experiment","3","3521","3","yes","768","4","[0, 0, 0, 0, 0, 0, 0, 0, 0, 0, 0, 0, 0, 0, 0, 0, 0, 0, 0, 0, 0, 0, 0, 0, 0, 0]","[0, 0, 0, 0, 0, 0, 0, 0, 0, 0, 0, 0, 0, 0, 0, 0, 0, 0, 2, 5, 12, 20, 31, 46, 63, 82, 104, 126, 145, 160, 174, 183, 189, 192, 192, 192, 192, 192, 192, 192, 192, 192, 192, 192, 195, 198, 201, 205, 211, 219, 232, 246, 260, 275, 284, 291, 297, 300, 301, 301, 301, 301]","[0, 0, 0, 0, 0, 0, 0, 0, 0, 0, 0, 0, 0, 0, 0, 0, 0, 0, 0, 0, 0, 0, 0, 0, 0, 0]","[0, 0, 0, 0, 0, 0, 0, 0, 0, 0, 0, 0, 0, 0, 0, 0, 0, 0, 0, 0, 0, 1, 1, 1, 2, 2, 2, 2, 2, 2, 2, 3, 3, 4, 4, 4, 4, 4, 4, 4, 4, 4, 4, 4, 4, 4, 4, 4, 3, 2, 1, 1, 1, 1, 1, 1, 1, 1, 1, 1, 1, 1]"
"100","100","1033.25","1033.25","black","no","prac","3","legacy","legacy","w.png","w.png","w.png","b.png","1","legacy","0","relative","1","undefined","NA","blue","NA","undefined","1","undefined","undefined","blue","3","0","3","0","3","0","NA","3","3","3","3","3","0","3","3","3","3","0","4","NA","NA","3","0","0","0","0","0","0","0","3","11/02/20 16:41:52","Default description","yes","simont_HV.osexp","C:\Users\admin\Desktop\채은\!MouseTracking_final","no","sans","no","18","no","black","no","yes","768","230","None","230","None","legacy","3","3","1","C:/Users/admin/Desktop/채은/!MouseTracking_final/subject-19.csv","legacy","1","2","1","Kafkaesque Koffka","3.2.6","0","blue","space","NA","None","blue","start","space","NA","NA","NA","NA","612","92835","NA","250","612","572","26301","NA","NA","NA","NA","2","legacy","1024","2","48000","-16","experiment","19","odd","legacy","red","green","blue","yellow","2","27786","NA","NA","134747","1480","NA","133380","133884","134135","132807","NA","1484","134751","135751","133883","134135","NA","NA","NA","NA","132806","NA","NA","NA","NA","NA","NA","120622","132805","[133884.0, 133894.0, 133904.0, 133914.0, 133924.0, 133934.0, 133944.0, 133954.0, 133964.0, 133974.0, 133984.0, 133994.0, 134004.0, 134014.0, 134024.0, 134034.0, 134044.0, 134054.0, 134064.0, 134074.0, 134084.0, 134094.0, 134104.0, 134114.0, 134124.0, 134134.0]","[134135.0, 134145.0, 134155.0, 134165.0, 134175.0, 134185.0, 134195.0, 134205.0, 134215.0, 134225.0, 134235.0, 134245.0, 134255.0, 134265.0, 134275.0, 134285.0, 134295.0, 134305.0, 134315.0, 134325.0, 134335.0, 134345.0, 134355.0, 134365.0, 134375.0, 134385.0, 134395.0, 134405.0, 134415.0, 134425.0, 134435.0, 134445.0, 134455.0, 134465.0, 134475.0, 134485.0, 134495.0, 134505.0, 134515.0, 134525.0, 134535.0, 134545.0, 134555.0, 134565.0, 134575.0, 134585.0, 134595.0, 134605.0, 134615.0, 134625.0, 134635.0, 134645.0, 134655.0, 134665.0, 134675.0, 134685.0, 134695.0, 134705.0, 134715.0, 134725.0, 134735.0, 134745.0, 134747]","example_experiment","4","4133","4","yes","768","1","[0, 0, 0, 0, 0, 0, 0, 0, 0, 0, 0, 0, 0, 0, 0, 0, 0, 0, 0, 0, 0, 0, 0, 0, 0, 0]","[0, 0, 0, 0, 0, 0, 0, 0, 0, 0, 0, 0, 0, 0, 0, 0, 0, 0, 0, 0, 0, 0, 0, 0, 1, 4, 9, 16, 22, 30, 35, 40, 43, 44, 44, 42, 37, 32, 26, 21, 13, 7, -1, -7, -12, -15, -18, -19, -20, -20, -20, -19, -16, -12, -7, -2, 3, 6, 9, 11, 11, 11, 11]","[0, 0, 0, 0, 0, 0, 0, 0, 0, 0, 0, 0, 0, 0, 0, 0, 0, 0, 0, 0, 0, 0, 0, 0, 0, 0]","[0, 0, 0, 0, 0, 0, 0, 0, 0, 0, 0, 0, 0, 0, 0, 0, 0, 0, 0, 0, 0, 0, 0, 0, -7, -17, -32, -52, -71, -91, -109, -128, -147, -166, -184, -200, -216, -227, -238, -246, -254, -260, -264, -267, -269, -270, -270, -270, -270, -271, -276, -284, -294, -306, -317, -326, -334, -339, -343, -345, -345, -346, -346]"
"100","100","940.8","940.8","black","no","prac","1","legacy","legacy","w.png","w.png","g.png","w.png","2","legacy","0","relative","1","undefined","NA","green","NA","undefined","1","undefined","undefined","green","2","0","3","0","4","0","NA","4","4","4","4","4","0","4","4","4","4","0","4","NA","NA","4","0","0","0","0","0","0","0","4","11/02/20 16:41:52","Default description","yes","simont_HV.osexp","C:\Users\admin\Desktop\채은\!MouseTracking_final","no","sans","no","18","no","black","no","yes","768","170","None","170","None","legacy","4","4","2","C:/Users/admin/Desktop/채은/!MouseTracking_final/subject-19.csv","legacy","1","1","2","Kafkaesque Koffka","3.2.6","0","green","space","NA","None","green","start","space","NA","NA","NA","NA","571","92835","NA","250","571","459","26301","NA","NA","NA","NA","2","legacy","1024","2","48000","-16","experiment","19","odd","legacy","red","green","blue","yellow","1","27786","NA","NA","137663","1480","NA","136336","136840","137092","135876","NA","1484","137681","138681","136840","137092","NA","NA","NA","NA","135876","NA","NA","NA","NA","NA","NA","120622","135874","[136841.0, 136851.0, 136861.0, 136871.0, 136881.0, 136891.0, 136901.0, 136911.0, 136921.0, 136931.0, 136941.0, 136951.0, 136961.0, 136971.0, 136981.0, 136991.0, 137001.0, 137011.0, 137021.0, 137031.0, 137041.0, 137051.0, 137061.0, 137071.0, 137081.0, 137091.0]","[137092.0, 137102.0, 137112.0, 137122.0, 137132.0, 137142.0, 137152.0, 137162.0, 137172.0, 137182.0, 137192.0, 137202.0, 137212.0, 137222.0, 137232.0, 137242.0, 137252.0, 137262.0, 137272.0, 137282.0, 137292.0, 137302.0, 137312.0, 137322.0, 137332.0, 137342.0, 137352.0, 137362.0, 137372.0, 137382.0, 137392.0, 137402.0, 137412.0, 137422.0, 137432.0, 137442.0, 137452.0, 137462.0, 137472.0, 137482.0, 137492.0, 137502.0, 137512.0, 137522.0, 137532.0, 137542.0, 137552.0, 137562.0, 137572.0, 137582.0, 137592.0, 137602.0, 137612.0, 137622.0, 137632.0, 137642.0, 137652.0, 137662.0, 137663]","example_experiment","5","4704","5","yes","768","3","[0, 0, 0, 0, 0, 0, 0, 0, 0, 0, 0, 0, 0, 0, 0, 0, 0, 0, 0, 0, 0, 0, 0, 0, 0, 0]","[0, 0, 0, 0, 0, 0, 0, 0, 0, 0, 0, 0, 0, 0, 0, 0, 0, 0, 1, 5, 12, 25, 44, 69, 99, 128, 157, 182, 208, 229, 247, 259, 265, 267, 267, 267, 267, 267, 266, 263, 262, 261, 258, 253, 249, 246, 246, 246, 248, 253, 259, 266, 271, 277, 283, 288, 293, 299, 300]","[0, 0, 0, 0, 0, 0, 0, 0, 0, 0, 0, 0, 0, 0, 0, 0, 0, 0, 0, 0, 0, 0, 0, 0, 0, 0]","[0, 0, 0, 0, 0, 0, 0, 0, 0, 0, 0, 0, 0, 0, 0, 0, 0, 0, 0, 0, 0, 0, 0, -1, -1, -1, -2, -3, -3, -4, -4, -4, -4, -4, -4, -4, -4, -4, -4, -5, -5, -5, -5, -5, -5, -5, -5, -5, -6, -7, -8, -8, -8, -8, -7, -6, -5, -3, -3]"
"100","100","921.5","921.5","black","no","prac","1","legacy","legacy","y.png","w.png","w.png","w.png","2","legacy","0","relative","1","undefined","NA","yellow","NA","undefined","1","undefined","undefined","yellow","4","0","3","0","5","0","NA","5","5","5","5","5","0","5","5","5","5","0","4","NA","NA","5","0","0","0","0","0","0","0","5","11/02/20 16:41:52","Default description","yes","simont_HV.osexp","C:\Users\admin\Desktop\채은\!MouseTracking_final","no","sans","no","18","no","black","no","yes","768","330","None","330","None","legacy","5","5","2","C:/Users/admin/Desktop/채은/!MouseTracking_final/subject-19.csv","legacy","1","1","1","Kafkaesque Koffka","3.2.6","0","yellow","space","NA","None","yellow","start","space","NA","NA","NA","NA","825","92835","NA","250","825","747","26301","NA","NA","NA","NA","2","legacy","1024","2","48000","-16","experiment","19","odd","legacy","red","green","blue","yellow","2","27786","NA","NA","141130","1480","NA","139549","140053","140305","138801","NA","1484","141151","142151","140053","140305","NA","NA","NA","NA","138801","NA","NA","NA","NA","NA","NA","120622","138800","[140054.0, 140064.0, 140074.0, 140084.0, 140094.0, 140104.0, 140114.0, 140124.0, 140134.0, 140144.0, 140154.0, 140164.0, 140174.0, 140184.0, 140194.0, 140204.0, 140214.0, 140224.0, 140234.0, 140244.0, 140254.0, 140264.0, 140274.0, 140284.0, 140294.0, 140304.0]","[140305.0, 140315.0, 140325.0, 140335.0, 140345.0, 140355.0, 140365.0, 140375.0, 140385.0, 140395.0, 140405.0, 140415.0, 140425.0, 140435.0, 140445.0, 140455.0, 140465.0, 140475.0, 140485.0, 140495.0, 140505.0, 140515.0, 140525.0, 140535.0, 140545.0, 140555.0, 140565.0, 140575.0, 140585.0, 140595.0, 140605.0, 140615.0, 140625.0, 140635.0, 140645.0, 140655.0, 140665.0, 140675.0, 140685.0, 140695.0, 140705.0, 140715.0, 140725.0, 140735.0, 140745.0, 140755.0, 140765.0, 140775.0, 140785.0, 140795.0, 140805.0, 140815.0, 140825.0, 140835.0, 140845.0, 140855.0, 140865.0, 140875.0, 140885.0, 140895.0, 140905.0, 140915.0, 140925.0, 140935.0, 140945.0, 140955.0, 140965.0, 140975.0, 140985.0, 140995.0, 141005.0, 141015.0, 141025.0, 141035.0, 141045.0, 141055.0, 141065.0, 141075.0, 141085.0, 141095.0, 141105.0, 141115.0, 141125.0, 141130]","example_experiment","6","5529","6","yes","768","1","[0, 0, 0, 0, 0, 0, 0, 0, 0, 0, 0, 0, 0, 0, 0, 0, 0, 0, 0, 0, 0, 0, 0, 0, 0, 0]","[0, 0, 0, 0, 0, 0, 0, 0, 0, 0, 0, 0, 0, 0, 0, 0, 0, 0, 0, 0, 0, 0, 0, 0, 0, 0, 0, 0, 0, 0, 0, 0, 0, 0, 0, 1, 2, 4, 6, 8, 11, 14, 18, 21, 27, 31, 35, 38, 42, 44, 47, 49, 49, 49, 49, 49, 49, 49, 49, 48, 46, 42, 39, 36, 32, 30, 27, 24, 22, 19, 15, 10, 6, 3, 1, -1, -2, -3, -5, -6, -6, -6, -6, -6]","[0, 0, 0, 0, 0, 0, 0, 0, 0, 0, 0, 0, 0, 0, 0, 0, 0, 0, 0, 0, 0, 0, 0, 0, 0, 0]","[0, 0, 0, 0, 0, 0, 0, 0, 0, 0, 0, 0, 0, 0, 0, 0, 0, 0, 0, 0, 0, 0, 0, 0, 0, 0, 0, 0, 0, 0, 0, 0, 0, 0, 2, 8, 16, 26, 36, 46, 58, 68, 83, 100, 122, 149, 180, 210, 241, 267, 293, 310, 321, 328, 330, 330, 330, 325, 318, 308, 297, 287, 277, 268, 260, 255, 251, 249, 248, 248, 249, 255, 264, 272, 277, 281, 283, 286, 289, 294, 301, 307, 313, 315]"
"100","100","860.285714286","860.285714286","black","no","prac","2","legacy","legacy","w.png","w.png","r.png","w.png","1","legacy","0","relative","1","undefined","NA","red","NA","undefined","1","undefined","undefined","red","1","0","3","0","6","0","NA","6","6","6","6","6","0","6","6","6","6","0","4","NA","NA","6","0","0","0","0","0","0","0","6","11/02/20 16:41:52","Default description","yes","simont_HV.osexp","C:\Users\admin\Desktop\채은\!MouseTracking_final","no","sans","no","18","no","black","no","yes","768","120","None","120","None","legacy","6","6","2","C:/Users/admin/Desktop/채은/!MouseTracking_final/subject-19.csv","legacy","2","1","1","Kafkaesque Koffka","3.2.6","0","red","space","NA","None","red","start","space","NA","NA","NA","NA","493","92835","NA","250","493","569","26301","NA","NA","NA","NA","2","legacy","1024","2","48000","-16","experiment","19","odd","legacy","red","green","blue","yellow","1","27786","NA","NA","144081","1480","NA","142832","143336","143588","142262","NA","1484","144101","145101","143336","143588","NA","NA","NA","NA","142262","NA","NA","NA","NA","NA","NA","120622","142260","[143337.0, 143347.0, 143357.0, 143367.0, 143377.0, 143387.0, 143397.0, 143407.0, 143417.0, 143427.0, 143437.0, 143447.0, 143457.0, 143467.0, 143477.0, 143487.0, 143497.0, 143507.0, 143517.0, 143527.0, 143537.0, 143547.0, 143557.0, 143567.0, 143577.0, 143587.0]","[143588.0, 143598.0, 143608.0, 143618.0, 143628.0, 143638.0, 143648.0, 143658.0, 143668.0, 143678.0, 143688.0, 143698.0, 143708.0, 143718.0, 143728.0, 143738.0, 143748.0, 143758.0, 143768.0, 143778.0, 143788.0, 143798.0, 143808.0, 143818.0, 143828.0, 143838.0, 143848.0, 143858.0, 143868.0, 143878.0, 143888.0, 143898.0, 143908.0, 143918.0, 143928.0, 143938.0, 143948.0, 143958.0, 143968.0, 143978.0, 143988.0, 143998.0, 144008.0, 144018.0, 144028.0, 144038.0, 144048.0, 144058.0, 144068.0, 144078.0, 144081]","example_experiment","7","6022","7","yes","768","2","[0, 0, 0, 0, 0, 0, 0, 0, 0, 0, 0, 0, 0, 0, 0, 0, 0, 0, 0, 0, 0, 0, 0, 0, 0, 0]","[0, 0, 0, 0, 0, 0, 0, 0, 0, 0, 0, 0, 0, -3, -7, -14, -22, -38, -60, -82, -110, -132, -155, -171, -185, -198, -206, -214, -219, -221, -221, -221, -221, -221, -221, -221, -221, -221, -221, -221, -222, -226, -236, -247, -262, -274, -282, -289, -293, -295, -295]","[0, 0, 0, 0, 0, 0, 0, 0, 0, 0, 0, 0, 0, 0, 0, 0, 0, 0, 0, 0, 0, 0, 0, 0, 0, 0]","[0, 0, 0, 0, 0, 0, 0, 0, 0, 0, 0, 0, 0, 0, 1, 1, 1, -2, -5, -8, -10, -11, -11, -11, -10, -9, -7, -6, -6, -5, -5, -5, -5, -5, -5, -5, -5, -5, -5, -5, -4, -4, -2, -1, -1, -1, -1, -3, -6, -7, -7]"
"100","100","831","831","black","no","prac","4","legacy","legacy","w.png","w.png","w.png","y.png","2","legacy","0","relative","1","undefined","NA","yellow","NA","undefined","1","undefined","undefined","yellow","4","0","3","0","7","0","NA","7","7","7","7","7","0","7","7","7","7","0","4","NA","NA","7","0","0","0","0","0","0","0","7","11/02/20 16:41:52","Default description","yes","simont_HV.osexp","C:\Users\admin\Desktop\채은\!MouseTracking_final","no","sans","no","18","no","black","no","yes","768","170","None","170","None","legacy","7","7","1","C:/Users/admin/Desktop/채은/!MouseTracking_final/subject-19.csv","legacy","2","2","1","Kafkaesque Koffka","3.2.6","0","yellow","space","NA","None","yellow","start","space","NA","NA","NA","NA","626","92835","NA","250","626","541","26301","NA","NA","NA","NA","2","legacy","1024","2","48000","-16","experiment","19","odd","legacy","red","green","blue","yellow","2","27786","NA","NA","147147","1480","NA","145765","146269","146521","145223","NA","1484","147151","148151","146269","146521","NA","NA","NA","NA","145223","NA","NA","NA","NA","NA","NA","120622","145221","[146270.0, 146280.0, 146290.0, 146300.0, 146310.0, 146320.0, 146330.0, 146340.0, 146350.0, 146360.0, 146370.0, 146380.0, 146390.0, 146400.0, 146410.0, 146420.0, 146430.0, 146440.0, 146450.0, 146460.0, 146470.0, 146480.0, 146490.0, 146500.0, 146510.0, 146520.0]","[146521.0, 146531.0, 146541.0, 146551.0, 146561.0, 146571.0, 146581.0, 146591.0, 146601.0, 146611.0, 146621.0, 146631.0, 146641.0, 146651.0, 146661.0, 146671.0, 146681.0, 146691.0, 146701.0, 146711.0, 146721.0, 146731.0, 146741.0, 146751.0, 146761.0, 146771.0, 146781.0, 146791.0, 146801.0, 146811.0, 146821.0, 146831.0, 146841.0, 146851.0, 146861.0, 146871.0, 146881.0, 146891.0, 146901.0, 146911.0, 146921.0, 146931.0, 146941.0, 146951.0, 146961.0, 146971.0, 146981.0, 146991.0, 147001.0, 147011.0, 147021.0, 147031.0, 147041.0, 147051.0, 147061.0, 147071.0, 147081.0, 147091.0, 147101.0, 147111.0, 147121.0, 147131.0, 147141.0, 147147]","example_experiment","8","6648","8","yes","768","2","[0, 0, 0, 0, 0, 0, 0, 0, 0, 0, 0, 0, 0, 0, 0, 0, 0, 0, 0, 0, 0, 0, 0, 0, 0, 0]","[0, 0, 0, 0, 0, 0, 0, 0, 0, 0, 0, 0, 0, 0, 0, 0, 0, 0, 1, 1, 2, 2, 2, 2, 3, 4, 5, 6, 6, 5, 0, -4, -8, -11, -14, -15, -15, -16, -16, -15, -13, -11, -8, -5, -3, -1, 0, 0, 0, 0, 0, 0, 0, 0, 0, 0, 0, 1, 1, 1, 1, 1, 1, 1]","[0, 0, 0, 0, 0, 0, 0, 0, 0, 0, 0, 0, 0, 0, 0, 0, 0, 0, 0, 0, 0, 0, 0, 0, 0, 0]","[0, 0, 0, 0, 0, 0, 0, 0, 0, 0, 0, 0, 0, 0, 0, 0, 0, 0, 0, 0, 0, 0, 0, 1, 4, 10, 21, 36, 55, 89, 120, 150, 178, 199, 217, 234, 248, 257, 265, 269, 272, 272, 272, 272, 270, 269, 268, 267, 267, 267, 267, 267, 267, 267, 267, 267, 267, 268, 274, 279, 286, 292, 296, 298]"
"100","100","782.555555556","782.555555556","black","no","prac","3","legacy","legacy","w.png","r.png","w.png","w.png","1","legacy","0","relative","1","undefined","NA","red","NA","undefined","1","undefined","undefined","red","1","0","3","0","8","0","NA","8","8","8","8","8","0","8","8","8","8","0","4","NA","NA","8","0","0","0","0","0","0","0","8","11/02/20 16:41:52","Default description","yes","simont_HV.osexp","C:\Users\admin\Desktop\채은\!MouseTracking_final","no","sans","no","18","no","black","no","yes","768","110","None","110","None","legacy","8","8","1","C:/Users/admin/Desktop/채은/!MouseTracking_final/subject-19.csv","legacy","1","2","2","Kafkaesque Koffka","3.2.6","0","red","space","NA","None","red","start","space","NA","NA","NA","NA","395","92835","NA","250","395","570","26301","NA","NA","NA","NA","2","legacy","1024","2","48000","-16","experiment","19","odd","legacy","red","green","blue","yellow","1","27786","NA","NA","149982","1480","NA","148833","149336","149587","148262","NA","1484","150011","151011","149335","149587","NA","NA","NA","NA","148262","NA","NA","NA","NA","NA","NA","120622","148260","[149336.0, 149346.0, 149356.0, 149366.0, 149376.0, 149386.0, 149396.0, 149406.0, 149416.0, 149426.0, 149436.0, 149446.0, 149456.0, 149466.0, 149476.0, 149486.0, 149496.0, 149506.0, 149516.0, 149526.0, 149536.0, 149546.0, 149556.0, 149566.0, 149576.0, 149586.0]","[149587.0, 149597.0, 149607.0, 149617.0, 149627.0, 149637.0, 149647.0, 149657.0, 149667.0, 149677.0, 149687.0, 149697.0, 149707.0, 149717.0, 149727.0, 149737.0, 149747.0, 149757.0, 149767.0, 149777.0, 149787.0, 149797.0, 149807.0, 149817.0, 149827.0, 149837.0, 149847.0, 149857.0, 149867.0, 149877.0, 149887.0, 149897.0, 149907.0, 149917.0, 149927.0, 149937.0, 149947.0, 149957.0, 149967.0, 149977.0, 149982]","example_experiment","9","7043","9","yes","768","3","[0, 0, 0, 0, 0, 0, 0, 0, 0, 0, 0, 0, 0, 0, 0, 0, 0, 0, 0, 0, 0, 0, 0, 0, 0, 0]","[0, 0, 0, 0, 0, 0, 0, 0, 0, 0, 0, 0, -1, -6, -12, -19, -26, -36, -49, -68, -88, -110, -132, -158, -188, -217, -241, -263, -280, -290, -295, -299, -300, -302, -304, -305, -306, -306, -306, -306, -306]","[0, 0, 0, 0, 0, 0, 0, 0, 0, 0, 0, 0, 0, 0, 0, 0, 0, 0, 0, 0, 0, 0, 0, 0, 0, 0]","[0, 0, 0, 0, 0, 0, 0, 0, 0, 0, 0, 0, 0, 2, 4, 5, 7, 7, 7, 6, 5, 2, 1, 0, -1, -1, -1, -1, -1, -3, -4, -6, -6, -6, -6, -6, -6, -6, -6, -6, -6]"
"100","100","797.2","797.2","black","no","prac","1","legacy","legacy","y.png","w.png","w.png","w.png","2","legacy","0","relative","1","undefined","NA","yellow","NA","undefined","1","undefined","undefined","yellow","4","0","3","0","9","0","NA","9","9","9","9","9","0","9","9","9","9","0","4","NA","NA","9","0","0","0","0","0","0","0","9","11/02/20 16:41:52","Default description","yes","simont_HV.osexp","C:\Users\admin\Desktop\채은\!MouseTracking_final","no","sans","no","18","no","black","no","yes","768","270","None","270","None","legacy","9","9","2","C:/Users/admin/Desktop/채은/!MouseTracking_final/subject-19.csv","legacy","1","1","2","Kafkaesque Koffka","3.2.6","0","yellow","space","NA","None","yellow","start","space","NA","NA","NA","NA","929","92835","NA","250","929","471","26301","NA","NA","NA","NA","2","legacy","1024","2","48000","-16","experiment","19","odd","legacy","red","green","blue","yellow","2","27786","NA","NA","153279","1480","NA","151596","152099","152350","151124","NA","1484","153291","154291","152098","152350","NA","NA","NA","NA","151124","NA","NA","NA","NA","NA","NA","120622","151123","[152099.0, 152109.0, 152119.0, 152129.0, 152139.0, 152149.0, 152159.0, 152169.0, 152179.0, 152189.0, 152199.0, 152209.0, 152219.0, 152229.0, 152239.0, 152249.0, 152259.0, 152269.0, 152279.0, 152289.0, 152299.0, 152309.0, 152319.0, 152329.0, 152339.0, 152349.0]","[152350.0, 152360.0, 152370.0, 152380.0, 152390.0, 152400.0, 152410.0, 152420.0, 152430.0, 152440.0, 152450.0, 152460.0, 152470.0, 152480.0, 152490.0, 152500.0, 152510.0, 152520.0, 152530.0, 152540.0, 152550.0, 152560.0, 152570.0, 152580.0, 152590.0, 152600.0, 152610.0, 152620.0, 152630.0, 152640.0, 152650.0, 152660.0, 152670.0, 152680.0, 152690.0, 152700.0, 152710.0, 152720.0, 152730.0, 152740.0, 152750.0, 152760.0, 152770.0, 152780.0, 152790.0, 152800.0, 152810.0, 152820.0, 152830.0, 152840.0, 152850.0, 152860.0, 152870.0, 152880.0, 152890.0, 152900.0, 152910.0, 152920.0, 152925, 152935.0, 152945.0, 152955.0, 152965.0, 152975.0, 152985.0, 152995.0, 153005.0, 153015.0, 153025.0, 153035.0, 153045.0, 153055.0, 153065.0, 153075.0, 153085.0, 153095.0, 153105.0, 153115.0, 153125.0, 153135.0, 153145.0, 153155.0, 153165.0, 153175.0, 153185.0, 153195.0, 153205.0, 153215.0, 153225.0, 153235.0, 153245.0, 153255.0, 153265.0, 153275.0, 153279]","example_experiment","10","7972","10","yes","768","3","[0, 0, 0, 0, 0, 0, 0, 0, 0, 0, 0, 0, 0, 0, 0, 0, 0, 0, 0, 0, 0, 0, 0, 0, 0, 0]","[0, 0, 0, 0, 0, 0, 0, 0, 0, 0, 0, 0, 0, 0, 0, 0, 0, 0, 0, 0, 0, 0, 0, 0, 0, 0, 0, 0, 0, 3, 5, 7, 9, 11, 14, 18, 19, 19, 19, 16, 11, 7, 3, 1, 0, -1, -1, -1, -1, -1, -1, -2, -3, -3, -3, -3, -3, -3, -3, -3, -3, -3, -3, -3, -3, -3, -3, -3, -3, -3, -3, -3, -3, -3, -3, -3, -3, -3, -3, -3, -3, -3, -3, -3, -3, -3, -1, 0, 1, 2, 3, 3, 3, 3, 3]","[0, 0, 0, 0, 0, 0, 0, 0, 0, 0, 0, 0, 0, 0, 0, 0, 0, 0, 0, 0, 0, 0, 0, 0, 0, 0]","[0, 0, 0, 0, 0, 0, 0, 0, 0, 0, 0, 0, 0, 0, 0, 0, 0, 0, 0, 0, 0, 0, 0, 0, 0, 0, 0, 0, 3, 11, 23, 38, 57, 80, 106, 134, 161, 183, 206, 220, 239, 249, 259, 267, 271, 274, 276, 277, 277, 278, 278, 278, 279, 280, 280, 280, 280, 280, 280, 280, 280, 280, 280, 280, 280, 280, 280, 280, 280, 280, 280, 280, 280, 280, 280, 280, 280, 280, 280, 280, 280, 280, 280, 281, 284, 287, 291, 294, 298, 300, 302, 302, 302, 302, 302]"
"100","100","770.363636364","770.363636364","black","no","prac","1","legacy","legacy","w.png","w.png","g.png","w.png","2","legacy","0","relative","1","undefined","NA","green","NA","undefined","1","undefined","undefined","green","2","0","3","0","10","0","NA","10","10","10","10","10","0","10","10","10","10","0","4","NA","NA","10","0","0","0","0","0","0","0","10","11/02/20 16:41:52","Default description","yes","simont_HV.osexp","C:\Users\admin\Desktop\채은\!MouseTracking_final","no","sans","no","18","no","black","no","yes","768","230","None","230","620","legacy","10","10","2","C:/Users/admin/Desktop/채은/!MouseTracking_final/subject-19.csv","legacy","1","1","1","Kafkaesque Koffka","3.2.6","0","green","space","NA","None","green","start","space","NA","NA","NA","NA","502","92835","NA","250","502","1004","26301","NA","NA","NA","NA","2","legacy","1024","2","48000","-16","experiment","19","odd","legacy","red","green","blue","yellow","1","27786","NA","NA","156681","1480","NA","155423","155927","156179","154417","NA","1484","156701","157701","155927","156179","NA","NA","NA","NA","154417","NA","NA","NA","NA","NA","NA","120622","154416","[155928.0, 155938.0, 155948.0, 155958.0, 155968.0, 155978.0, 155988.0, 155998.0, 156008.0, 156018.0, 156028.0, 156038.0, 156048.0, 156058.0, 156068.0, 156078.0, 156088.0, 156098.0, 156108.0, 156118.0, 156128.0, 156138.0, 156148.0, 156158.0, 156168.0, 156178.0]","[156179.0, 156189.0, 156199.0, 156209.0, 156219.0, 156229.0, 156239.0, 156249.0, 156259.0, 156269.0, 156279.0, 156289.0, 156299.0, 156309.0, 156319.0, 156329.0, 156339.0, 156349.0, 156359.0, 156369.0, 156379.0, 156389.0, 156399.0, 156409.0, 156419.0, 156429.0, 156439.0, 156449.0, 156459.0, 156469.0, 156479.0, 156489.0, 156499.0, 156509.0, 156519.0, 156529.0, 156539.0, 156549.0, 156559.0, 156569.0, 156579.0, 156589.0, 156599.0, 156609.0, 156619.0, 156629.0, 156639.0, 156649.0, 156659.0, 156669.0, 156679.0, 156681]","example_experiment","11","8474","11","yes","768","1","[0, 0, 0, 0, 0, 0, 0, 0, 0, 0, 0, 0, 0, 0, 0, 0, 0, 0, 0, 0, 0, 0, 0, 0, 0, 0]","[0, 0, 0, 0, 0, 0, 0, 0, 0, 0, 0, 0, 0, 0, 0, 0, 0, 0, 0, 0, 0, 0, 0, 0, 2, 6, 11, 20, 35, 50, 73, 99, 131, 168, 201, 228, 251, 263, 276, 283, 288, 290, 290, 290, 290, 290, 290, 290, 290, 290, 290, 290]","[0, 0, 0, 0, 0, 0, 0, 0, 0, 0, 0, 0, 0, 0, 0, 0, 0, 0, 0, 0, 0, 0, 0, 0, 0, 0]","[0, 0, 0, 0, 0, 0, 0, 0, 0, 0, 0, 0, 0, 0, 0, 0, 0, 0, 0, 0, 0, 0, 0, 0, 0, -1, -1, -2, -2, -3, -4, -6, -7, -10, -11, -11, -11, -11, -11, -10, -10, -9, -9, -9, -9, -9, -9, -9, -9, -9, -9, -9]"
"100","100","749.25","749.25","black","no","prac","1","legacy","legacy","w.png","w.png","w.png","b.png","1","legacy","0","relative","1","undefined","NA","blue","NA","undefined","1","undefined","undefined","blue","3","0","3","0","11","0","NA","11","11","11","11","11","0","11","11","11","11","0","4","NA","NA","11","0","0","0","0","0","0","0","11","11/02/20 16:41:52","Default description","yes","simont_HV.osexp","C:\Users\admin\Desktop\채은\!MouseTracking_final","no","sans","no","18","no","black","no","yes","768","190","None","190","None","legacy","11","11","1","C:/Users/admin/Desktop/채은/!MouseTracking_final/subject-19.csv","legacy","1","1","1","Kafkaesque Koffka","3.2.6","0","blue","space","NA","None","blue","start","space","NA","NA","NA","NA","517","92835","NA","250","517","679","26301","NA","NA","NA","NA","2","legacy","1024","2","48000","-16","experiment","19","odd","legacy","red","green","blue","yellow","2","27786","NA","NA","159763","1480","NA","158492","158995","159246","157811","NA","1484","159781","160781","158994","159246","NA","NA","NA","NA","157811","NA","NA","NA","NA","NA","NA","120622","157809","[158995.0, 159005.0, 159015.0, 159025.0, 159035.0, 159045.0, 159055.0, 159065.0, 159075.0, 159085.0, 159095.0, 159105.0, 159115.0, 159125.0, 159135.0, 159145.0, 159155.0, 159165.0, 159175.0, 159185.0, 159195.0, 159205.0, 159215.0, 159225.0, 159235.0, 159245.0]","[159246.0, 159256.0, 159266.0, 159276.0, 159286.0, 159296.0, 159306.0, 159316.0, 159326.0, 159336.0, 159346.0, 159356.0, 159366.0, 159376.0, 159386.0, 159396.0, 159406.0, 159416.0, 159426.0, 159436.0, 159446.0, 159456.0, 159466.0, 159476.0, 159486.0, 159496.0, 159506.0, 159516.0, 159526.0, 159536.0, 159546.0, 159556.0, 159566.0, 159576.0, 159586.0, 159596.0, 159606.0, 159616.0, 159626.0, 159636.0, 159646.0, 159656.0, 159666.0, 159676.0, 159686.0, 159696.0, 159706.0, 159716.0, 159726.0, 159736.0, 159746.0, 159756.0, 159763]","example_experiment","12","8991","12","yes","768","1","[0, 0, 0, 0, 0, 0, 0, 0, 0, 0, 0, 0, 0, 0, 0, 0, 0, 0, 0, 0, 0, 0, 0, 0, 0, 0]","[0, 0, 0, 0, 0, 0, 0, 0, 0, 0, 0, 0, 0, 0, 0, 0, 0, 0, 0, 0, 0, -2, -3, -5, -8, -11, -15, -18, -21, -24, -27, -29, -30, -30, -30, -30, -31, -32, -32, -32, -32, -32, -32, -31, -30, -27, -24, -21, -18, -14, -10, -7, -7]","[0, 0, 0, 0, 0, 0, 0, 0, 0, 0, 0, 0, 0, 0, 0, 0, 0, 0, 0, 0, 0, 0, 0, 0, 0, 0]","[0, 0, 0, 0, 0, 0, 0, 0, 0, 0, 0, 0, 0, 0, 0, 0, 0, 0, 0, 0, -6, -17, -30, -49, -70, -90, -117, -143, -167, -189, -210, -227, -247, -261, -275, -284, -291, -296, -299, -299, -299, -299, -299, -299, -299, -299, -299, -300, -301, -301, -301, -301, -301]"
"100","100","753.769230769","753.769230769","black","no","prac","1","legacy","legacy","w.png","r.png","w.png","w.png","1","legacy","0","relative","1","undefined","NA","red","NA","undefined","1","undefined","undefined","red","1","0","3","0","12","0","NA","12","12","12","12","12","0","12","12","12","12","0","4","NA","NA","12","0","0","0","0","0","0","0","12","11/02/20 16:41:52","Default description","yes","simont_HV.osexp","C:\Users\admin\Desktop\채은\!MouseTracking_final","no","sans","no","18","no","black","no","yes","768","60","None","60","None","legacy","12","12","1","C:/Users/admin/Desktop/채은/!MouseTracking_final/subject-19.csv","legacy","1","1","1","Kafkaesque Koffka","3.2.6","0","red","space","NA","None","red","start","space","NA","NA","NA","NA","808","92835","NA","250","808","307","26301","NA","NA","NA","NA","2","legacy","1024","2","48000","-16","experiment","19","odd","legacy","red","green","blue","yellow","1","27786","NA","NA","162776","1480","NA","161212","161716","161968","160904","NA","1484","162781","163781","161716","161968","NA","NA","NA","NA","160904","NA","NA","NA","NA","NA","NA","120622","160903","[161717.0, 161727.0, 161737.0, 161747.0, 161757.0, 161767.0, 161777.0, 161787.0, 161797.0, 161807.0, 161817.0, 161827.0, 161837.0, 161847.0, 161857.0, 161867.0, 161877.0, 161887.0, 161897.0, 161907.0, 161917.0, 161927.0, 161937.0, 161947.0, 161957.0, 161967.0]","[161968.0, 161978.0, 161988.0, 161998.0, 162008.0, 162018.0, 162028.0, 162038.0, 162048.0, 162058.0, 162068.0, 162078.0, 162088.0, 162098.0, 162108.0, 162118.0, 162128.0, 162138.0, 162148.0, 162158.0, 162168.0, 162178.0, 162188.0, 162198.0, 162208.0, 162218.0, 162228.0, 162238.0, 162248.0, 162258.0, 162268.0, 162278.0, 162288.0, 162298.0, 162308.0, 162318.0, 162328.0, 162338.0, 162348.0, 162358.0, 162368.0, 162378.0, 162388.0, 162389, 162399.0, 162409.0, 162419.0, 162429.0, 162439.0, 162449.0, 162459.0, 162469.0, 162479.0, 162489.0, 162499.0, 162509.0, 162519.0, 162529.0, 162539.0, 162549.0, 162559.0, 162569.0, 162579.0, 162589.0, 162599.0, 162609.0, 162619.0, 162629.0, 162639.0, 162649.0, 162659.0, 162669.0, 162679.0, 162689.0, 162699.0, 162709.0, 162719.0, 162729.0, 162739.0, 162749.0, 162759.0, 162769.0, 162776]","example_experiment","13","9799","13","yes","768","1","[0, 0, 0, 0, 0, 0, 0, 0, 0, 0, 0, 0, 0, 0, 0, 0, 0, 0, 0, 0, 0, 0, 0, 0, 0, 0]","[0, 0, 0, 0, 0, 0, 0, -5, -11, -20, -28, -38, -53, -72, -89, -107, -128, -146, -164, -182, -198, -211, -219, -224, -227, -230, -233, -238, -241, -245, -247, -248, -248, -248, -249, -252, -257, -262, -268, -271, -276, -280, -286, -287, -295, -307, -318, -326, -330, -330, -330, -330, -330, -330, -330, -330, -330, -330, -330, -330, -330, -330, -330, -330, -330, -330, -330, -330, -330, -330, -330, -330, -330, -330, -330, -330, -330, -330, -330, -330, -330, -330, -330]","[0, 0, 0, 0, 0, 0, 0, 0, 0, 0, 0, 0, 0, 0, 0, 0, 0, 0, 0, 0, 0, 0, 0, 0, 0, 0]","[0, 0, 0, 0, 0, 0, 0, 1, 3, 4, 4, 4, 4, 4, 3, 1, 0, -1, -2, -3, -3, -3, -3, -3, -3, -3, -3, -2, -2, 0, 0, 0, 0, 0, 0, 1, 3, 4, 5, 5, 6, 6, 6, 6, 7, 7, 9, 9, 9, 9, 9, 9, 9, 9, 9, 9, 9, 9, 9, 9, 9, 9, 9, 9, 9, 9, 9, 9, 9, 9, 9, 9, 9, 9, 9, 9, 9, 9, 9, 9, 9, 9, 9]"
"100","100","730.714285714","730.714285714","black","no","prac","2","legacy","legacy","w.png","w.png","w.png","y.png","2","legacy","0","relative","1","undefined","NA","yellow","NA","undefined","1","undefined","undefined","yellow","4","0","3","0","13","0","NA","13","13","13","13","13","0","13","13","13","13","0","4","NA","NA","13","0","0","0","0","0","0","0","13","11/02/20 16:41:52","Default description","yes","simont_HV.osexp","C:\Users\admin\Desktop\채은\!MouseTracking_final","no","sans","no","18","no","black","no","yes","768","80","None","80","None","legacy","13","13","1","C:/Users/admin/Desktop/채은/!MouseTracking_final/subject-19.csv","legacy","2","1","1","Kafkaesque Koffka","3.2.6","0","yellow","space","NA","None","yellow","start","space","NA","NA","NA","NA","431","92835","NA","250","431","652","26301","NA","NA","NA","NA","2","legacy","1024","2","48000","-16","experiment","19","odd","legacy","red","green","blue","yellow","2","27786","NA","NA","165733","1480","NA","164546","165050","165302","163893","NA","1484","165751","166751","165050","165302","NA","NA","NA","NA","163893","NA","NA","NA","NA","NA","NA","120622","163892","[165051.0, 165061.0, 165071.0, 165081.0, 165091.0, 165101.0, 165111.0, 165121.0, 165131.0, 165141.0, 165151.0, 165161.0, 165171.0, 165181.0, 165191.0, 165201.0, 165211.0, 165221.0, 165231.0, 165241.0, 165251.0, 165261.0, 165271.0, 165281.0, 165291.0, 165301.0]","[165302.0, 165312.0, 165322.0, 165332.0, 165342.0, 165352.0, 165362.0, 165372.0, 165382.0, 165392.0, 165402.0, 165412.0, 165422.0, 165432.0, 165442.0, 165452.0, 165462.0, 165472.0, 165482.0, 165492.0, 165502.0, 165512.0, 165522.0, 165532.0, 165542.0, 165552.0, 165562.0, 165572.0, 165582.0, 165592.0, 165602.0, 165612.0, 165622.0, 165632.0, 165642.0, 165652.0, 165662.0, 165672.0, 165682.0, 165692.0, 165702.0, 165712.0, 165722.0, 165732.0, 165733]","example_experiment","14","10230","14","yes","768","2","[0, 0, 0, 0, 0, 0, 0, 0, 0, 0, 0, 0, 0, 0, 0, 0, 0, 0, 0, 0, 0, 0, 0, 0, 0, 0]","[0, 0, 0, 0, 0, 0, 0, 0, 0, 0, 2, 3, 3, 3, 3, 3, 3, 3, 3, 3, 3, 3, 3, 3, 3, 2, 2, 2, 2, 2, 2, 2, 2, 2, 3, 4, 4, 4, 4, 4, 4, 4, 4, 4, 4]","[0, 0, 0, 0, 0, 0, 0, 0, 0, 0, 0, 0, 0, 0, 0, 0, 0, 0, 0, 0, 0, 0, 0, 0, 0, 0]","[0, 0, 0, 0, 0, 0, 0, 0, 0, 3, 7, 15, 24, 38, 53, 69, 87, 109, 133, 154, 177, 200, 218, 234, 247, 257, 263, 269, 272, 276, 278, 281, 283, 284, 287, 290, 295, 301, 310, 318, 327, 333, 338, 340, 340]"
"100","100","706.8","706.8","black","no","prac","3","legacy","legacy","w.png","r.png","w.png","w.png","1","legacy","0","relative","1","undefined","NA","red","NA","undefined","1","undefined","undefined","red","1","0","3","0","14","0","NA","14","14","14","14","14","0","14","14","14","14","0","4","NA","NA","14","0","0","0","0","0","0","0","14","11/02/20 16:41:52","Default description","yes","simont_HV.osexp","C:\Users\admin\Desktop\채은\!MouseTracking_final","no","sans","no","18","no","black","no","yes","768","100","None","100","None","legacy","14","14","1","C:/Users/admin/Desktop/채은/!MouseTracking_final/subject-19.csv","legacy","1","2","1","Kafkaesque Koffka","3.2.6","0","red","space","NA","None","red","start","space","NA","NA","NA","NA","372","92835","NA","250","372","388","26301","NA","NA","NA","NA","2","legacy","1024","2","48000","-16","experiment","19","odd","legacy","red","green","blue","yellow","1","27786","NA","NA","168387","1480","NA","167259","167763","168015","166870","NA","1484","168401","169401","167763","168015","NA","NA","NA","NA","166870","NA","NA","NA","NA","NA","NA","120622","166869","[167764.0, 167774.0, 167784.0, 167794.0, 167804.0, 167814.0, 167824.0, 167834.0, 167844.0, 167854.0, 167864.0, 167874.0, 167884.0, 167894.0, 167904.0, 167914.0, 167924.0, 167934.0, 167944.0, 167954.0, 167964.0, 167974.0, 167984.0, 167994.0, 168004.0, 168014.0]","[168015.0, 168025.0, 168035.0, 168045.0, 168055.0, 168065.0, 168075.0, 168085.0, 168095.0, 168105.0, 168115.0, 168125.0, 168135.0, 168145.0, 168155.0, 168165.0, 168175.0, 168185.0, 168195.0, 168205.0, 168215.0, 168225.0, 168235.0, 168245.0, 168255.0, 168265.0, 168275.0, 168285.0, 168295.0, 168305.0, 168315.0, 168325.0, 168335.0, 168345.0, 168355.0, 168365.0, 168375.0, 168385.0, 168387]","example_experiment","15","10602","15","yes","768","1","[0, 0, 0, 0, 0, 0, 0, 0, 0, 0, 0, 0, 0, 0, 0, 0, 0, 0, 0, 0, 0, 0, 0, 0, 0, 0]","[0, 0, 0, 0, 0, 0, 0, 0, 0, 0, 0, -4, -11, -25, -44, -60, -86, -111, -140, -169, -200, -224, -247, -265, -277, -285, -290, -292, -294, -295, -297, -299, -300, -302, -305, -306, -306, -306, -306]","[0, 0, 0, 0, 0, 0, 0, 0, 0, 0, 0, 0, 0, 0, 0, 0, 0, 0, 0, 0, 0, 0, 0, 0, 0, 0]","[0, 0, 0, 0, 0, 0, 0, 0, 0, 0, 0, 0, 2, 5, 7, 7, 7, 7, 7, 5, 3, 1, -2, -4, -5, -7, -7, -7, -7, -7, -7, -7, -7, -6, -6, -6, -6, -6, -6]"
"100","100","692.0625","692.0625","black","no","prac","2","legacy","legacy","b.png","w.png","w.png","w.png","1","legacy","0","relative","1","undefined","NA","blue","NA","undefined","1","undefined","undefined","blue","3","0","3","0","15","0","NA","15","15","15","15","15","0","15","15","15","15","0","4","NA","NA","15","0","0","0","0","0","0","0","15","11/02/20 16:41:52","Default description","yes","simont_HV.osexp","C:\Users\admin\Desktop\채은\!MouseTracking_final","no","sans","no","18","no","black","no","yes","768","130","None","130","None","legacy","15","15","2","C:/Users/admin/Desktop/채은/!MouseTracking_final/subject-19.csv","legacy","2","1","2","Kafkaesque Koffka","3.2.6","0","blue","space","NA","None","blue","start","space","NA","NA","NA","NA","471","92835","NA","250","471","657","26301","NA","NA","NA","NA","2","legacy","1024","2","48000","-16","experiment","19","odd","legacy","red","green","blue","yellow","2","27786","NA","NA","171413","1480","NA","170186","170690","170942","169528","NA","1484","171421","172421","170690","170942","NA","NA","NA","NA","169528","NA","NA","NA","NA","NA","NA","120622","169527","[170691.0, 170701.0, 170711.0, 170721.0, 170731.0, 170741.0, 170751.0, 170761.0, 170771.0, 170781.0, 170791.0, 170801.0, 170811.0, 170821.0, 170831.0, 170841.0, 170851.0, 170861.0, 170871.0, 170881.0, 170891.0, 170901.0, 170911.0, 170921.0, 170931.0, 170941.0]","[170942.0, 170952.0, 170962.0, 170972.0, 170982.0, 170992.0, 171002.0, 171012.0, 171022.0, 171032.0, 171042.0, 171052.0, 171062.0, 171072.0, 171082.0, 171092.0, 171102.0, 171112.0, 171122.0, 171132.0, 171142.0, 171152.0, 171162.0, 171172.0, 171182.0, 171192.0, 171202.0, 171212.0, 171222.0, 171232.0, 171242.0, 171252.0, 171262.0, 171272.0, 171282.0, 171292.0, 171302.0, 171312.0, 171322.0, 171332.0, 171342.0, 171352.0, 171362.0, 171372.0, 171382.0, 171392.0, 171402.0, 171412.0, 171413]","example_experiment","16","11073","16","yes","768","4","[0, 0, 0, 0, 0, 0, 0, 0, 0, 0, 0, 0, 0, 0, 0, 0, 0, 0, 0, 0, 0, 0, 0, 0, 0, 0]","[0, 0, 0, 0, 0, 0, 0, 0, 0, 0, 0, 0, 0, 0, 0, 1, 2, 5, 7, 10, 12, 13, 13, 13, 13, 13, 13, 13, 13, 13, 12, 11, 10, 8, 7, 7, 7, 7, 7, 7, 7, 8, 8, 8, 8, 8, 8, 8, 8]","[0, 0, 0, 0, 0, 0, 0, 0, 0, 0, 0, 0, 0, 0, 0, 0, 0, 0, 0, 0, 0, 0, 0, 0, 0, 0]","[0, 0, 0, 0, 0, 0, 0, 0, 0, 0, 0, 0, 0, 0, -1, -6, -14, -23, -40, -58, -80, -104, -130, -155, -182, -209, -235, -258, -281, -299, -317, -332, -340, -347, -352, -352, -352, -352, -352, -351, -348, -346, -346, -346, -346, -346, -346, -346, -346]"
"100","100","683.823529412","683.823529412","black","no","prac","4","legacy","legacy","w.png","w.png","r.png","w.png","1","legacy","0","relative","1","undefined","NA","red","NA","undefined","1","undefined","undefined","red","1","0","3","0","16","0","NA","16","16","16","16","16","0","16","16","16","16","0","4","NA","NA","16","0","0","0","0","0","0","0","16","11/02/20 16:41:52","Default description","yes","simont_HV.osexp","C:\Users\admin\Desktop\채은\!MouseTracking_final","no","sans","no","18","no","black","no","yes","768","60","None","60","None","legacy","16","16","2","C:/Users/admin/Desktop/채은/!MouseTracking_final/subject-19.csv","legacy","2","2","1","Kafkaesque Koffka","3.2.6","0","red","space","NA","None","red","start","space","NA","NA","NA","NA","552","92835","NA","250","552","221","26301","NA","NA","NA","NA","2","legacy","1024","2","48000","-16","experiment","19","odd","legacy","red","green","blue","yellow","1","27786","NA","NA","174068","1480","NA","172760","173264","173516","172538","NA","1484","174071","175071","173264","173516","NA","NA","NA","NA","172538","NA","NA","NA","NA","NA","NA","120622","172537","[173265.0, 173275.0, 173285.0, 173295.0, 173305.0, 173315.0, 173325.0, 173335.0, 173345.0, 173355.0, 173365.0, 173375.0, 173385.0, 173395.0, 173405.0, 173415.0, 173425.0, 173435.0, 173445.0, 173455.0, 173465.0, 173475.0, 173485.0, 173495.0, 173505.0, 173515.0]","[173516.0, 173526.0, 173536.0, 173546.0, 173556.0, 173566.0, 173576.0, 173586.0, 173596.0, 173606.0, 173616.0, 173626.0, 173636.0, 173646.0, 173656.0, 173666.0, 173676.0, 173686.0, 173696.0, 173706.0, 173716.0, 173726.0, 173736.0, 173746.0, 173756.0, 173766.0, 173776.0, 173786.0, 173796.0, 173806.0, 173816.0, 173823, 173833.0, 173843.0, 173853.0, 173863.0, 173873.0, 173883.0, 173893.0, 173903.0, 173913.0, 173923.0, 173933.0, 173943.0, 173953.0, 173963.0, 173973.0, 173983.0, 173993.0, 174003.0, 174013.0, 174023.0, 174033.0, 174043.0, 174053.0, 174063.0, 174068]","example_experiment","17","11625","17","yes","768","2","[0, 0, 0, 0, 0, 0, 0, 0, 0, 0, 0, 0, 0, 0, 0, 0, 0, 0, 0, 0, 0, 0, 0, 0, 0, 0]","[0, 0, 0, 0, 0, 0, 0, -1, -11, -30, -52, -83, -122, -153, -183, -205, -219, -226, -233, -240, -248, -266, -286, -308, -326, -343, -356, -363, -366, -366, -366, -366, -366, -366, -366, -366, -366, -366, -366, -366, -366, -364, -363, -362, -361, -360, -360, -360, -357, -352, -344, -336, -330, -325, -322, -321, -321]","[0, 0, 0, 0, 0, 0, 0, 0, 0, 0, 0, 0, 0, 0, 0, 0, 0, 0, 0, 0, 0, 0, 0, 0, 0, 0]","[0, 0, 0, 0, 0, 0, 0, 0, 2, 4, 4, 5, 5, 5, 5, 5, 5, 5, 6, 7, 8, 9, 9, 10, 10, 10, 10, 10, 10, 10, 10, 10, 10, 10, 10, 10, 10, 10, 10, 10, 10, 10, 9, 8, 8, 8, 8, 8, 7, 6, 4, 3, 2, 2, 2, 2, 2]"
"100","100","677.222222222","677.222222222","black","no","prac","4","legacy","legacy","b.png","w.png","w.png","w.png","1","legacy","0","relative","1","undefined","NA","blue","NA","undefined","1","undefined","undefined","blue","3","0","3","0","17","0","NA","17","17","17","17","17","0","17","17","17","17","0","4","NA","NA","17","0","0","0","0","0","0","0","17","11/02/20 16:41:52","Default description","yes","simont_HV.osexp","C:\Users\admin\Desktop\채은\!MouseTracking_final","no","sans","no","18","no","black","no","yes","768","170","None","170","None","legacy","17","17","2","C:/Users/admin/Desktop/채은/!MouseTracking_final/subject-19.csv","legacy","2","2","2","Kafkaesque Koffka","3.2.6","0","blue","space","NA","None","blue","start","space","NA","NA","NA","NA","565","92835","NA","250","565","416","26301","NA","NA","NA","NA","2","legacy","1024","2","48000","-16","experiment","19","odd","legacy","red","green","blue","yellow","2","27786","NA","NA","176916","1480","NA","175596","176099","176351","175179","NA","1484","176931","177931","176099","176351","NA","NA","NA","NA","175179","NA","NA","NA","NA","NA","NA","120622","175178","[176100.0, 176110.0, 176120.0, 176130.0, 176140.0, 176150.0, 176160.0, 176170.0, 176180.0, 176190.0, 176200.0, 176210.0, 176220.0, 176230.0, 176240.0, 176250.0, 176260.0, 176270.0, 176280.0, 176290.0, 176300.0, 176310.0, 176320.0, 176330.0, 176340.0, 176350.0]","[176351.0, 176361.0, 176371.0, 176381.0, 176391.0, 176401.0, 176411.0, 176421.0, 176431.0, 176441.0, 176451.0, 176461.0, 176471.0, 176481.0, 176491.0, 176501.0, 176511.0, 176521.0, 176531.0, 176541.0, 176551.0, 176561.0, 176571.0, 176581.0, 176591.0, 176601.0, 176611.0, 176621.0, 176631.0, 176641.0, 176651.0, 176661.0, 176671.0, 176681.0, 176691.0, 176701.0, 176711.0, 176721.0, 176731.0, 176741.0, 176751.0, 176761.0, 176771.0, 176781.0, 176791.0, 176801.0, 176811.0, 176821.0, 176831.0, 176841.0, 176851.0, 176861.0, 176871.0, 176881.0, 176891.0, 176901.0, 176911.0, 176916]","example_experiment","18","12190","18","yes","768","4","[0, 0, 0, 0, 0, 0, 0, 0, 0, 0, 0, 0, 0, 0, 0, 0, 0, 0, 0, 0, 0, 0, 0, 0, 0, 0]","[0, 0, 0, 0, 0, 0, 0, 0, 0, 0, 0, 0, 0, 0, 0, 0, 0, 0, 0, 1, 2, 5, 7, 10, 12, 13, 13, 12, 11, 9, 9, 9, 10, 12, 13, 14, 14, 15, 15, 15, 15, 15, 15, 15, 15, 15, 15, 15, 14, 12, 10, 7, 6, 4, 3, 1, 1, 1]","[0, 0, 0, 0, 0, 0, 0, 0, 0, 0, 0, 0, 0, 0, 0, 0, 0, 0, 0, 0, 0, 0, 0, 0, 0, 0]","[0, 0, 0, 0, 0, 0, 0, 0, 0, 0, 0, 0, 0, 0, 0, 0, 0, 0, -5, -11, -22, -37, -53, -71, -91, -110, -128, -145, -161, -176, -193, -206, -219, -228, -233, -238, -242, -243, -244, -245, -247, -249, -251, -254, -257, -260, -264, -267, -272, -278, -284, -290, -295, -299, -304, -307, -308, -309]"
"100","100","666.894736842","666.894736842","black","no","prac","4","legacy","legacy","w.png","g.png","w.png","w.png","2","legacy","0","relative","1","undefined","NA","green","NA","undefined","1","undefined","undefined","green","2","0","3","0","18","0","NA","18","18","18","18","18","0","18","18","18","18","0","4","NA","NA","18","0","0","0","0","0","0","0","18","11/02/20 16:41:52","Default description","yes","simont_HV.osexp","C:\Users\admin\Desktop\채은\!MouseTracking_final","no","sans","no","18","no","black","no","yes","768","190","None","190","None","legacy","18","18","1","C:/Users/admin/Desktop/채은/!MouseTracking_final/subject-19.csv","legacy","2","2","2","Kafkaesque Koffka","3.2.6","0","green","space","NA","None","green","start","space","NA","NA","NA","NA","481","92835","NA","250","481","446","26301","NA","NA","NA","NA","2","legacy","1024","2","48000","-16","experiment","19","odd","legacy","red","green","blue","yellow","1","27786","NA","NA","179723","1480","NA","178486","178990","179242","178039","NA","1484","179741","180741","178990","179242","NA","NA","NA","NA","178039","NA","NA","NA","NA","NA","NA","120622","178037","[178991.0, 179001.0, 179011.0, 179021.0, 179031.0, 179041.0, 179051.0, 179061.0, 179071.0, 179081.0, 179091.0, 179101.0, 179111.0, 179121.0, 179131.0, 179141.0, 179151.0, 179161.0, 179171.0, 179181.0, 179191.0, 179201.0, 179211.0, 179221.0, 179231.0, 179241.0]","[179242.0, 179252.0, 179262.0, 179272.0, 179282.0, 179292.0, 179302.0, 179312.0, 179322.0, 179332.0, 179342.0, 179352.0, 179362.0, 179372.0, 179382.0, 179392.0, 179402.0, 179412.0, 179422.0, 179432.0, 179442.0, 179452.0, 179462.0, 179472.0, 179482.0, 179492.0, 179502.0, 179512.0, 179522.0, 179532.0, 179542.0, 179552.0, 179562.0, 179572.0, 179582.0, 179592.0, 179602.0, 179612.0, 179622.0, 179632.0, 179642.0, 179652.0, 179662.0, 179672.0, 179682.0, 179692.0, 179702.0, 179712.0, 179722.0, 179723]","example_experiment","19","12671","19","yes","768","4","[0, 0, 0, 0, 0, 0, 0, 0, 0, 0, 0, 0, 0, 0, 0, 0, 0, 0, 0, 0, 0, 0, 0, 0, 0, 0]","[0, 0, 0, 0, 0, 0, 0, 0, 0, 0, 0, 0, 0, 0, 0, 0, 0, 0, 0, 0, 2, 6, 14, 26, 45, 70, 97, 123, 153, 181, 205, 226, 247, 266, 284, 294, 301, 303, 303, 303, 303, 303, 303, 304, 304, 305, 305, 305, 305, 305]","[0, 0, 0, 0, 0, 0, 0, 0, 0, 0, 0, 0, 0, 0, 0, 0, 0, 0, 0, 0, 0, 0, 0, 0, 0, 0]","[0, 0, 0, 0, 0, 0, 0, 0, 0, 0, 0, 0, 0, 0, 0, 0, 0, 0, 0, 0, 0, 0, 0, 0, 0, 0, 1, 1, 3, 5, 6, 6, 6, 6, 6, 6, 7, 7, 7, 7, 7, 7, 7, 8, 8, 8, 8, 8, 8, 8]"
"100","100","658","658","black","no","prac","3","legacy","legacy","y.png","w.png","w.png","w.png","2","legacy","0","relative","1","undefined","NA","yellow","NA","undefined","1","undefined","undefined","yellow","4","0","3","0","19","0","NA","19","19","19","19","19","0","19","19","19","19","0","4","NA","NA","19","0","0","0","0","0","0","0","19","11/02/20 16:41:52","Default description","yes","simont_HV.osexp","C:\Users\admin\Desktop\채은\!MouseTracking_final","no","sans","no","18","no","black","no","yes","768","160","None","160","None","legacy","19","19","2","C:/Users/admin/Desktop/채은/!MouseTracking_final/subject-19.csv","legacy","1","2","2","Kafkaesque Koffka","3.2.6","0","yellow","space","NA","None","yellow","start","space","NA","NA","NA","NA","489","92835","NA","250","489","472","26301","NA","NA","NA","NA","2","legacy","1024","2","48000","-16","experiment","19","odd","legacy","red","green","blue","yellow","2","27786","NA","NA","182569","1480","NA","181324","181828","182080","180851","NA","1484","182581","183581","181828","182080","NA","NA","NA","NA","180851","NA","NA","NA","NA","NA","NA","120622","180849","[181829.0, 181839.0, 181849.0, 181859.0, 181869.0, 181879.0, 181889.0, 181899.0, 181909.0, 181919.0, 181929.0, 181939.0, 181949.0, 181959.0, 181969.0, 181979.0, 181989.0, 181999.0, 182009.0, 182019.0, 182029.0, 182039.0, 182049.0, 182059.0, 182069.0, 182079.0]","[182080.0, 182090.0, 182100.0, 182110.0, 182120.0, 182130.0, 182140.0, 182150.0, 182160.0, 182170.0, 182180.0, 182190.0, 182200.0, 182210.0, 182220.0, 182230.0, 182240.0, 182250.0, 182260.0, 182270.0, 182280.0, 182290.0, 182300.0, 182310.0, 182320.0, 182330.0, 182340.0, 182350.0, 182360.0, 182370.0, 182380.0, 182390.0, 182400.0, 182410.0, 182420.0, 182430.0, 182440.0, 182450.0, 182460.0, 182470.0, 182480.0, 182490.0, 182500.0, 182510.0, 182520.0, 182530.0, 182540.0, 182550.0, 182560.0, 182569]","example_experiment","20","13160","20","yes","768","3","[0, 0, 0, 0, 0, 0, 0, 0, 0, 0, 0, 0, 0, 0, 0, 0, 0, 0, 0, 0, 0, 0, 0, 0, 0, 0]","[0, 0, 0, 0, 0, 0, 0, 0, 0, 0, 0, 0, 0, 0, 0, 0, 0, 0, 2, 3, 4, 5, 7, 9, 12, 15, 18, 22, 25, 28, 30, 33, 35, 37, 39, 40, 40, 40, 40, 40, 38, 37, 35, 34, 32, 29, 24, 19, 14, 10]","[0, 0, 0, 0, 0, 0, 0, 0, 0, 0, 0, 0, 0, 0, 0, 0, 0, 0, 0, 0, 0, 0, 0, 0, 0, 0]","[0, 0, 0, 0, 0, 0, 0, 0, 0, 0, 0, 0, 0, 0, 0, 0, 0, 5, 14, 27, 46, 67, 87, 112, 135, 158, 182, 204, 226, 244, 258, 268, 275, 280, 283, 284, 284, 284, 284, 285, 286, 287, 289, 289, 289, 290, 291, 293, 294, 297]"
"100","100","643.238095238","643.238095238","black","no","prac","2","legacy","legacy","w.png","w.png","r.png","w.png","1","legacy","0","relative","1","undefined","NA","red","NA","undefined","1","undefined","undefined","red","1","0","3","0","20","0","NA","20","20","20","20","20","0","20","20","20","20","0","4","NA","NA","20","0","0","0","0","0","0","0","20","11/02/20 16:41:52","Default description","yes","simont_HV.osexp","C:\Users\admin\Desktop\채은\!MouseTracking_final","no","sans","no","18","no","black","no","yes","768","100","None","100","None","legacy","20","20","2","C:/Users/admin/Desktop/채은/!MouseTracking_final/subject-19.csv","legacy","2","1","2","Kafkaesque Koffka","3.2.6","0","red","space","NA","None","red","start","space","NA","NA","NA","NA","348","92835","NA","250","348","436","26301","NA","NA","NA","NA","2","legacy","1024","2","48000","-16","experiment","19","odd","legacy","red","green","blue","yellow","1","27786","NA","NA","185235","1480","NA","184131","184635","184887","183694","NA","1484","185251","186251","184635","184887","NA","NA","NA","NA","183694","NA","NA","NA","NA","NA","NA","120622","183692","[184636.0, 184646.0, 184656.0, 184666.0, 184676.0, 184686.0, 184696.0, 184706.0, 184716.0, 184726.0, 184736.0, 184746.0, 184756.0, 184766.0, 184776.0, 184786.0, 184796.0, 184806.0, 184816.0, 184826.0, 184836.0, 184846.0, 184856.0, 184866.0, 184876.0, 184886.0]","[184887.0, 184897.0, 184907.0, 184917.0, 184927.0, 184937.0, 184947.0, 184957.0, 184967.0, 184977.0, 184987.0, 184997.0, 185007.0, 185017.0, 185027.0, 185037.0, 185047.0, 185057.0, 185067.0, 185077.0, 185087.0, 185097.0, 185107.0, 185117.0, 185127.0, 185137.0, 185147.0, 185157.0, 185167.0, 185177.0, 185187.0, 185197.0, 185207.0, 185217.0, 185227.0, 185235]","example_experiment","21","13508","21","yes","768","4","[0, 0, 0, 0, 0, 0, 0, 0, 0, 0, 0, 0, 0, 0, 0, 0, 0, 0, 0, 0, 0, 0, 0, 0, 0, 0]","[0, 0, 0, 0, 0, 0, 0, 0, 0, 0, 0, -3, -13, -28, -50, -77, -107, -136, -166, -191, -212, -235, -257, -277, -289, -296, -298, -298, -298, -298, -298, -298, -298, -298, -298, -298]","[0, 0, 0, 0, 0, 0, 0, 0, 0, 0, 0, 0, 0, 0, 0, 0, 0, 0, 0, 0, 0, 0, 0, 0, 0, 0]","[0, 0, 0, 0, 0, 0, 0, 0, 0, 0, 0, 0, 0, 0, 0, 0, -1, -2, -5, -6, -7, -8, -8, -8, -8, -8, -8, -8, -8, -8, -8, -8, -8, -9, -9, -9]"
"100","100","633","633","black","no","prac","4","legacy","legacy","w.png","w.png","w.png","y.png","2","legacy","0","relative","1","undefined","NA","yellow","NA","undefined","1","undefined","undefined","yellow","4","0","3","0","21","0","NA","21","21","21","21","21","0","21","21","21","21","0","4","NA","NA","21","0","0","0","0","0","0","0","21","11/02/20 16:41:52","Default description","yes","simont_HV.osexp","C:\Users\admin\Desktop\채은\!MouseTracking_final","no","sans","no","18","no","black","no","yes","768","90","None","90","None","legacy","21","21","1","C:/Users/admin/Desktop/채은/!MouseTracking_final/subject-19.csv","legacy","2","2","1","Kafkaesque Koffka","3.2.6","0","yellow","space","NA","None","yellow","start","space","NA","NA","NA","NA","418","92835","NA","250","418","570","26301","NA","NA","NA","NA","2","legacy","1024","2","48000","-16","experiment","19","odd","legacy","red","green","blue","yellow","2","27786","NA","NA","188115","1480","NA","186941","187445","187697","186370","NA","1484","188131","189131","187445","187697","NA","NA","NA","NA","186370","NA","NA","NA","NA","NA","NA","120622","186368","[187446.0, 187456.0, 187466.0, 187476.0, 187486.0, 187496.0, 187506.0, 187516.0, 187526.0, 187536.0, 187546.0, 187556.0, 187566.0, 187576.0, 187586.0, 187596.0, 187606.0, 187616.0, 187626.0, 187636.0, 187646.0, 187656.0, 187666.0, 187676.0, 187686.0, 187696.0]","[187697.0, 187707.0, 187717.0, 187727.0, 187737.0, 187747.0, 187757.0, 187767.0, 187777.0, 187787.0, 187797.0, 187807.0, 187817.0, 187827.0, 187837.0, 187847.0, 187857.0, 187867.0, 187877.0, 187887.0, 187897.0, 187907.0, 187917.0, 187927.0, 187937.0, 187947.0, 187957.0, 187967.0, 187977.0, 187987.0, 187997.0, 188007.0, 188017.0, 188027.0, 188037.0, 188047.0, 188057.0, 188067.0, 188077.0, 188087.0, 188097.0, 188107.0, 188115]","example_experiment","22","13926","22","yes","768","2","[0, 0, 0, 0, 0, 0, 0, 0, 0, 0, 0, 0, 0, 0, 0, 0, 0, 0, 0, 0, 0, 0, 0, 0, 0, 0]","[0, 0, 0, 0, 0, 0, 0, 0, 0, 0, 2, 4, 4, 4, 4, 4, 4, 2, 0, -2, -5, -8, -12, -15, -18, -21, -23, -25, -25, -26, -26, -26, -26, -26, -26, -26, -26, -24, -22, -18, -14, -9, -7]","[0, 0, 0, 0, 0, 0, 0, 0, 0, 0, 0, 0, 0, 0, 0, 0, 0, 0, 0, 0, 0, 0, 0, 0, 0, 0]","[0, 0, 0, 0, 0, 0, 0, 0, 0, 0, 5, 14, 27, 44, 64, 88, 114, 140, 168, 191, 219, 241, 262, 279, 296, 309, 318, 325, 329, 333, 335, 335, 335, 335, 335, 335, 335, 335, 334, 333, 332, 330, 330]"
"100","100","637.260869565","637.260869565","black","no","prac","4","legacy","legacy","w.png","g.png","w.png","w.png","2","legacy","0","relative","1","undefined","NA","green","NA","undefined","1","undefined","undefined","green","2","0","3","0","22","0","NA","22","22","22","22","22","0","22","22","22","22","0","4","NA","NA","22","0","0","0","0","0","0","0","22","11/02/20 16:41:52","Default description","yes","simont_HV.osexp","C:\Users\admin\Desktop\채은\!MouseTracking_final","no","sans","no","18","no","black","no","yes","768","170","None","170","None","legacy","22","22","1","C:/Users/admin/Desktop/채은/!MouseTracking_final/subject-19.csv","legacy","2","2","2","Kafkaesque Koffka","3.2.6","0","green","space","NA","None","green","start","space","NA","NA","NA","NA","731","92835","NA","250","731","477","26301","NA","NA","NA","NA","2","legacy","1024","2","48000","-16","experiment","19","odd","legacy","red","green","blue","yellow","1","27786","NA","NA","191218","1480","NA","189731","190235","190487","189253","NA","1484","191221","192221","190235","190487","NA","NA","NA","NA","189253","NA","NA","NA","NA","NA","NA","120622","189252","[190236.0, 190246.0, 190256.0, 190266.0, 190276.0, 190286.0, 190296.0, 190306.0, 190316.0, 190326.0, 190336.0, 190346.0, 190356.0, 190366.0, 190376.0, 190386.0, 190396.0, 190406.0, 190416.0, 190426.0, 190436.0, 190446.0, 190456.0, 190466.0, 190476.0, 190486.0]","[190487.0, 190497.0, 190507.0, 190517.0, 190527.0, 190537.0, 190547.0, 190557.0, 190567.0, 190577.0, 190587.0, 190597.0, 190607.0, 190617.0, 190627.0, 190637.0, 190647.0, 190657.0, 190667.0, 190677.0, 190687.0, 190697.0, 190707.0, 190717.0, 190727.0, 190737.0, 190747.0, 190757.0, 190767.0, 190777.0, 190787.0, 190797.0, 190807.0, 190817.0, 190827.0, 190837.0, 190847.0, 190857.0, 190867.0, 190877.0, 190887.0, 190897.0, 190907.0, 190917.0, 190927.0, 190933, 190943.0, 190953.0, 190963.0, 190973.0, 190983.0, 190993.0, 191003.0, 191013.0, 191023.0, 191033.0, 191043.0, 191053.0, 191063.0, 191073.0, 191083.0, 191093.0, 191103.0, 191113.0, 191123.0, 191133.0, 191143.0, 191153.0, 191163.0, 191173.0, 191183.0, 191193.0, 191203.0, 191213.0, 191218]","example_experiment","23","14657","23","yes","768","4","[0, 0, 0, 0, 0, 0, 0, 0, 0, 0, 0, 0, 0, 0, 0, 0, 0, 0, 0, 0, 0, 0, 0, 0, 0, 0]","[0, 0, 0, 0, 0, 0, 0, 0, 0, 0, 0, 0, 0, 0, 0, 0, 0, 0, 3, 10, 26, 52, 78, 111, 137, 157, 174, 188, 201, 218, 231, 243, 248, 253, 256, 259, 261, 261, 263, 265, 268, 271, 274, 277, 279, 279, 279, 279, 279, 279, 279, 279, 279, 279, 279, 279, 279, 279, 279, 279, 279, 279, 280, 280, 280, 280, 280, 280, 280, 283, 286, 292, 296, 299, 300]","[0, 0, 0, 0, 0, 0, 0, 0, 0, 0, 0, 0, 0, 0, 0, 0, 0, 0, 0, 0, 0, 0, 0, 0, 0, 0]","[0, 0, 0, 0, 0, 0, 0, 0, 0, 0, 0, 0, 0, 0, 0, 0, 0, 0, 0, -2, -4, -8, -11, -13, -13, -13, -11, -9, -8, -5, -4, -3, -3, -3, -3, -3, -3, -3, -2, -2, -1, 0, 0, 0, 0, 0, 0, 0, 0, 0, 0, 0, 0, 0, 0, 0, 0, 0, 0, 0, 0, 0, 1, 1, 1, 1, 1, 1, 1, 1, 1, 1, 1, 1, 1]"
"100","100","628.333333333","628.333333333","black","no","prac","3","legacy","legacy","w.png","w.png","w.png","b.png","1","legacy","0","relative","1","undefined","NA","blue","NA","undefined","1","undefined","undefined","blue","3","0","3","0","23","0","NA","23","23","23","23","23","0","23","23","23","23","0","4","NA","NA","23","0","0","0","0","0","0","0","23","11/02/20 16:41:52","Default description","yes","simont_HV.osexp","C:\Users\admin\Desktop\채은\!MouseTracking_final","no","sans","no","18","no","black","no","yes","768","100","None","100","None","legacy","23","23","1","C:/Users/admin/Desktop/채은/!MouseTracking_final/subject-19.csv","legacy","1","2","2","Kafkaesque Koffka","3.2.6","0","blue","space","NA","None","blue","start","space","NA","NA","NA","NA","423","92835","NA","250","423","499","26301","NA","NA","NA","NA","2","legacy","1024","2","48000","-16","experiment","19","odd","legacy","red","green","blue","yellow","2","27786","NA","NA","194030","1480","NA","192851","193355","193607","192350","NA","1484","194041","195041","193355","193607","NA","NA","NA","NA","192350","NA","NA","NA","NA","NA","NA","120622","192349","[193356.0, 193366.0, 193376.0, 193386.0, 193396.0, 193406.0, 193416.0, 193426.0, 193436.0, 193446.0, 193456.0, 193466.0, 193476.0, 193486.0, 193496.0, 193506.0, 193516.0, 193526.0, 193536.0, 193546.0, 193556.0, 193566.0, 193576.0, 193586.0, 193596.0, 193606.0]","[193607.0, 193617.0, 193627.0, 193637.0, 193647.0, 193657.0, 193667.0, 193677.0, 193687.0, 193697.0, 193707.0, 193717.0, 193727.0, 193737.0, 193747.0, 193757.0, 193767.0, 193777.0, 193787.0, 193797.0, 193807.0, 193817.0, 193827.0, 193837.0, 193847.0, 193857.0, 193867.0, 193877.0, 193887.0, 193897.0, 193907.0, 193917.0, 193927.0, 193937.0, 193947.0, 193957.0, 193967.0, 193977.0, 193987.0, 193997.0, 194007.0, 194017.0, 194027.0, 194030]","example_experiment","24","15080","24","yes","768","3","[0, 0, 0, 0, 0, 0, 0, 0, 0, 0, 0, 0, 0, 0, 0, 0, 0, 0, 0, 0, 0, 0, 0, 0, 0, 0]","[0, 0, 0, 0, 0, 0, 0, 0, 0, 0, 0, 0, -1, -3, -3, -4, -4, -5, -5, -5, -5, -5, -5, -5, -5, -5, -5, -5, -5, -5, -7, -7, -9, -9, -9, -10, -10, -10, -10, -10, -10, -10, -9, -9]","[0, 0, 0, 0, 0, 0, 0, 0, 0, 0, 0, 0, 0, 0, 0, 0, 0, 0, 0, 0, 0, 0, 0, 0, 0, 0]","[0, 0, 0, 0, 0, 0, 0, 0, 0, 0, 0, -7, -14, -25, -36, -52, -71, -90, -109, -129, -149, -166, -183, -199, -211, -224, -233, -243, -252, -260, -268, -274, -280, -283, -287, -288, -289, -289, -289, -289, -289, -289, -289, -289]"
"100","100","618.52","618.52","black","no","prac","1","legacy","legacy","w.png","r.png","w.png","w.png","1","legacy","0","relative","1","undefined","NA","red","NA","undefined","1","undefined","undefined","red","1","0","3","0","24","0","NA","24","24","24","24","24","0","24","24","24","24","0","4","NA","NA","24","0","0","0","0","0","0","0","24","11/02/20 16:41:52","Default description","yes","simont_HV.osexp","C:\Users\admin\Desktop\채은\!MouseTracking_final","no","sans","no","18","no","black","no","yes","768","100","None","100","None","legacy","24","24","1","C:/Users/admin/Desktop/채은/!MouseTracking_final/subject-19.csv","legacy","1","1","2","Kafkaesque Koffka","3.2.6","0","red","space","NA","None","red","start","space","NA","NA","NA","NA","383","92835","NA","250","383","263","26301","NA","NA","NA","NA","2","legacy","1024","2","48000","-16","experiment","19","odd","legacy","red","green","blue","yellow","1","27786","NA","NA","196546","1480","NA","195407","195911","196163","195143","NA","1484","196561","197561","195911","196163","NA","NA","NA","NA","195143","NA","NA","NA","NA","NA","NA","120622","195142","[195912.0, 195922.0, 195932.0, 195942.0, 195952.0, 195962.0, 195972.0, 195982.0, 195992.0, 196002.0, 196012.0, 196022.0, 196032.0, 196042.0, 196052.0, 196062.0, 196072.0, 196082.0, 196092.0, 196102.0, 196112.0, 196122.0, 196132.0, 196142.0, 196152.0, 196162.0]","[196163.0, 196173.0, 196183.0, 196193.0, 196203.0, 196213.0, 196223.0, 196233.0, 196243.0, 196253.0, 196263.0, 196273.0, 196283.0, 196293.0, 196303.0, 196313.0, 196323.0, 196333.0, 196343.0, 196353.0, 196363.0, 196373.0, 196383.0, 196393.0, 196403.0, 196413.0, 196423.0, 196433.0, 196443.0, 196453.0, 196463.0, 196473.0, 196483.0, 196493.0, 196503.0, 196513.0, 196523.0, 196533.0, 196543.0, 196546]","example_experiment","25","15463","25","yes","768","3","[0, 0, 0, 0, 0, 0, 0, 0, 0, 0, 0, 0, 0, 0, 0, 0, 0, 0, 0, 0, 0, 0, 0, 0, 0, 0]","[0, 0, 0, 0, 0, 0, 0, 0, 0, 0, 0, -1, -6, -20, -39, -68, -98, -136, -164, -187, -206, -223, -237, -249, -257, -261, -261, -261, -261, -261, -261, -261, -261, -261, -266, -273, -281, -286, -289, -290]","[0, 0, 0, 0, 0, 0, 0, 0, 0, 0, 0, 0, 0, 0, 0, 0, 0, 0, 0, 0, 0, 0, 0, 0, 0, 0]","[0, 0, 0, 0, 0, 0, 0, 0, 0, 0, 0, 0, 0, 2, 4, 5, 5, 6, 7, 7, 7, 7, 6, 6, 5, 5, 5, 5, 5, 5, 4, 4, 4, 4, 3, 3, 3, 3, 3, 3]"
"100","100","612.576923077","612.576923077","black","no","prac","2","legacy","legacy","w.png","w.png","w.png","y.png","2","legacy","0","relative","1","undefined","NA","yellow","NA","undefined","1","undefined","undefined","yellow","4","0","3","0","25","0","NA","25","25","25","25","25","0","25","25","25","25","0","4","NA","NA","25","0","0","0","0","0","0","0","25","11/02/20 16:41:52","Default description","yes","simont_HV.osexp","C:\Users\admin\Desktop\채은\!MouseTracking_final","no","sans","no","18","no","black","no","yes","768","90","None","90","None","legacy","25","25","1","C:/Users/admin/Desktop/채은/!MouseTracking_final/subject-19.csv","legacy","2","1","1","Kafkaesque Koffka","3.2.6","0","yellow","space","NA","None","yellow","start","space","NA","NA","NA","NA","464","92835","NA","250","464","354","26301","NA","NA","NA","NA","2","legacy","1024","2","48000","-16","experiment","19","odd","legacy","red","green","blue","yellow","2","27786","NA","NA","199254","1480","NA","198035","198538","198790","197680","NA","1484","199261","200261","198538","198790","NA","NA","NA","NA","197680","NA","NA","NA","NA","NA","NA","120622","197679","[198539.0, 198549.0, 198559.0, 198569.0, 198579.0, 198589.0, 198599.0, 198609.0, 198619.0, 198629.0, 198639.0, 198649.0, 198659.0, 198669.0, 198679.0, 198689.0, 198699.0, 198709.0, 198719.0, 198729.0, 198739.0, 198749.0, 198759.0, 198769.0, 198779.0, 198789.0]","[198790.0, 198800.0, 198810.0, 198820.0, 198830.0, 198840.0, 198850.0, 198860.0, 198870.0, 198880.0, 198890.0, 198900.0, 198910.0, 198920.0, 198930.0, 198940.0, 198950.0, 198960.0, 198970.0, 198980.0, 198990.0, 199000.0, 199010.0, 199020.0, 199030.0, 199040.0, 199050.0, 199060.0, 199070.0, 199080.0, 199090.0, 199100.0, 199110.0, 199120.0, 199130.0, 199140.0, 199150.0, 199160.0, 199170.0, 199180.0, 199190.0, 199200.0, 199210.0, 199220.0, 199230.0, 199240.0, 199250.0, 199254]","example_experiment","26","15927","26","yes","768","2","[0, 0, 0, 0, 0, 0, 0, 0, 0, 0, 0, 0, 0, 0, 0, 0, 0, 0, 0, 0, 0, 0, 0, 0, 0, 0]","[0, 0, 0, 0, 0, 0, 0, 0, 0, 0, 0, 2, 5, 7, 10, 14, 17, 21, 25, 29, 33, 37, 41, 43, 45, 47, 49, 50, 50, 51, 51, 51, 51, 51, 49, 47, 44, 41, 39, 35, 32, 29, 24, 19, 13, 6, 1, 0]","[0, 0, 0, 0, 0, 0, 0, 0, 0, 0, 0, 0, 0, 0, 0, 0, 0, 0, 0, 0, 0, 0, 0, 0, 0, 0]","[0, 0, 0, 0, 0, 0, 0, 0, 0, 0, 4, 13, 28, 45, 72, 95, 123, 151, 178, 201, 224, 246, 265, 280, 292, 302, 309, 312, 314, 314, 314, 314, 314, 315, 316, 317, 319, 320, 320, 321, 321, 321, 321, 321, 320, 319, 319, 318]"
"100","100","607.518518519","607.518518519","black","no","prac","3","legacy","legacy","w.png","w.png","g.png","w.png","2","legacy","0","relative","1","undefined","NA","green","NA","undefined","1","undefined","undefined","green","2","0","3","0","26","0","NA","26","26","26","26","26","0","26","26","26","26","0","4","NA","NA","26","0","0","0","0","0","0","0","26","11/02/20 16:41:52","Default description","yes","simont_HV.osexp","C:\Users\admin\Desktop\채은\!MouseTracking_final","no","sans","no","18","no","black","no","yes","768","200","None","200","None","legacy","26","26","2","C:/Users/admin/Desktop/채은/!MouseTracking_final/subject-19.csv","legacy","1","2","1","Kafkaesque Koffka","3.2.6","0","green","space","NA","None","green","start","space","NA","NA","NA","NA","476","92835","NA","250","476","298","26301","NA","NA","NA","NA","2","legacy","1024","2","48000","-16","experiment","19","odd","legacy","red","green","blue","yellow","1","27786","NA","NA","201911","1480","NA","200679","201183","201435","200380","NA","1484","201931","202931","201183","201435","NA","NA","NA","NA","200380","NA","NA","NA","NA","NA","NA","120622","200378","[201184.0, 201194.0, 201204.0, 201214.0, 201224.0, 201234.0, 201244.0, 201254.0, 201264.0, 201274.0, 201284.0, 201294.0, 201304.0, 201314.0, 201324.0, 201334.0, 201344.0, 201354.0, 201364.0, 201374.0, 201384.0, 201394.0, 201404.0, 201414.0, 201424.0, 201434.0]","[201435.0, 201445.0, 201455.0, 201465.0, 201475.0, 201485.0, 201495.0, 201505.0, 201515.0, 201525.0, 201535.0, 201545.0, 201555.0, 201565.0, 201575.0, 201585.0, 201595.0, 201605.0, 201615.0, 201625.0, 201635.0, 201645.0, 201655.0, 201665.0, 201675.0, 201685.0, 201695.0, 201705.0, 201715.0, 201725.0, 201735.0, 201745.0, 201755.0, 201765.0, 201775.0, 201785.0, 201795.0, 201805.0, 201815.0, 201825.0, 201835.0, 201845.0, 201855.0, 201865.0, 201875.0, 201885.0, 201895.0, 201905.0, 201911]","example_experiment","27","16403","27","yes","768","1","[0, 0, 0, 0, 0, 0, 0, 0, 0, 0, 0, 0, 0, 0, 0, 0, 0, 0, 0, 0, 0, 0, 0, 0, 0, 0]","[0, 0, 0, 0, 0, 0, 0, 0, 0, 0, 0, 0, 0, 0, 0, 0, 0, 0, 0, 0, 0, 0, 5, 16, 34, 59, 89, 122, 148, 173, 194, 219, 240, 269, 292, 314, 327, 335, 338, 338, 338, 338, 338, 338, 338, 338, 338, 338, 338]","[0, 0, 0, 0, 0, 0, 0, 0, 0, 0, 0, 0, 0, 0, 0, 0, 0, 0, 0, 0, 0, 0, 0, 0, 0, 0]","[0, 0, 0, 0, 0, 0, 0, 0, 0, 0, 0, 0, 0, 0, 0, 0, 0, 0, 0, 0, 0, -1, -2, -4, -7, -10, -12, -13, -13, -13, -13, -12, -11, -11, -11, -10, -10, -10, -10, -10, -10, -10, -10, -10, -10, -10, -10, -10, -10]"
"100","100","601.142857143","601.142857143","black","no","prac","2","legacy","legacy","b.png","w.png","w.png","w.png","1","legacy","0","relative","1","undefined","NA","blue","NA","undefined","1","undefined","undefined","blue","3","0","3","0","27","0","NA","27","27","27","27","27","0","27","27","27","27","0","4","NA","NA","27","0","0","0","0","0","0","0","27","11/02/20 16:41:52","Default description","yes","simont_HV.osexp","C:\Users\admin\Desktop\채은\!MouseTracking_final","no","sans","no","18","no","black","no","yes","768","110","None","110","None","legacy","27","27","2","C:/Users/admin/Desktop/채은/!MouseTracking_final/subject-19.csv","legacy","2","1","2","Kafkaesque Koffka","3.2.6","0","blue","space","NA","None","blue","start","space","NA","NA","NA","NA","429","92835","NA","250","429","303","26301","NA","NA","NA","NA","2","legacy","1024","2","48000","-16","experiment","19","odd","legacy","red","green","blue","yellow","2","27786","NA","NA","204531","1480","NA","203346","203850","204102","203041","NA","1484","204561","205561","203850","204102","NA","NA","NA","NA","203041","NA","NA","NA","NA","NA","NA","120622","203040","[203851.0, 203861.0, 203871.0, 203881.0, 203891.0, 203901.0, 203911.0, 203921.0, 203931.0, 203941.0, 203951.0, 203961.0, 203971.0, 203981.0, 203991.0, 204001.0, 204011.0, 204021.0, 204031.0, 204041.0, 204051.0, 204061.0, 204071.0, 204081.0, 204091.0, 204101.0]","[204102.0, 204112.0, 204122.0, 204132.0, 204142.0, 204152.0, 204162.0, 204172.0, 204182.0, 204192.0, 204202.0, 204212.0, 204222.0, 204232.0, 204242.0, 204252.0, 204262.0, 204272.0, 204282.0, 204292.0, 204302.0, 204312.0, 204322.0, 204332.0, 204342.0, 204352.0, 204362.0, 204372.0, 204382.0, 204392.0, 204402.0, 204412.0, 204422.0, 204432.0, 204442.0, 204452.0, 204462.0, 204472.0, 204482.0, 204492.0, 204502.0, 204512.0, 204522.0, 204531]","example_experiment","28","16832","28","yes","768","4","[0, 0, 0, 0, 0, 0, 0, 0, 0, 0, 0, 0, 0, 0, 0, 0, 0, 0, 0, 0, 0, 0, 0, 0, 0, 0]","[0, 0, 0, 0, 0, 0, 0, 0, 0, 0, 0, 0, -1, -2, -2, -3, -5, -5, -6, -7, -8, -10, -10, -11, -13, -13, -13, -13, -14, -15, -16, -17, -19, -19, -20, -20, -20, -20, -20, -19, -15, -12, -9, -9]","[0, 0, 0, 0, 0, 0, 0, 0, 0, 0, 0, 0, 0, 0, 0, 0, 0, 0, 0, 0, 0, 0, 0, 0, 0, 0]","[0, 0, 0, 0, 0, 0, 0, 0, 0, 0, 0, 0, -3, -6, -11, -19, -28, -42, -57, -74, -93, -112, -132, -150, -174, -193, -216, -237, -256, -272, -288, -300, -309, -315, -319, -319, -319, -319, -319, -319, -319, -318, -317, -317]"
"100","100","595.724137931","595.724137931","black","no","prac","4","legacy","legacy","b.png","w.png","w.png","w.png","1","legacy","0","relative","1","undefined","NA","blue","NA","undefined","1","undefined","undefined","blue","3","0","3","0","28","0","NA","28","28","28","28","28","0","28","28","28","28","0","4","NA","NA","28","0","0","0","0","0","0","0","28","11/02/20 16:41:52","Default description","yes","simont_HV.osexp","C:\Users\admin\Desktop\채은\!MouseTracking_final","no","sans","no","18","no","black","no","yes","768","200","None","200","None","legacy","28","28","2","C:/Users/admin/Desktop/채은/!MouseTracking_final/subject-19.csv","legacy","2","2","2","Kafkaesque Koffka","3.2.6","0","blue","space","NA","None","blue","start","space","NA","NA","NA","NA","444","92835","NA","250","444","249","26301","NA","NA","NA","NA","2","legacy","1024","2","48000","-16","experiment","19","odd","legacy","red","green","blue","yellow","2","27786","NA","NA","207137","1480","NA","205937","206441","206693","205687","NA","1484","207141","208141","206441","206693","NA","NA","NA","NA","205687","NA","NA","NA","NA","NA","NA","120622","205686","[206442.0, 206452.0, 206462.0, 206472.0, 206482.0, 206492.0, 206502.0, 206512.0, 206522.0, 206532.0, 206542.0, 206552.0, 206562.0, 206572.0, 206582.0, 206592.0, 206602.0, 206612.0, 206622.0, 206632.0, 206642.0, 206652.0, 206662.0, 206672.0, 206682.0, 206692.0]","[206693.0, 206703.0, 206713.0, 206723.0, 206733.0, 206743.0, 206753.0, 206763.0, 206773.0, 206783.0, 206793.0, 206803.0, 206813.0, 206823.0, 206833.0, 206843.0, 206853.0, 206863.0, 206873.0, 206883.0, 206893.0, 206903.0, 206913.0, 206923.0, 206933.0, 206943.0, 206953.0, 206963.0, 206973.0, 206983.0, 206993.0, 207003.0, 207013.0, 207023.0, 207033.0, 207043.0, 207053.0, 207063.0, 207073.0, 207083.0, 207093.0, 207103.0, 207113.0, 207123.0, 207133.0, 207137]","example_experiment","29","17276","29","yes","768","4","[0, 0, 0, 0, 0, 0, 0, 0, 0, 0, 0, 0, 0, 0, 0, 0, 0, 0, 0, 0, 0, 0, 0, 0, 0, 0]","[0, 0, 0, 0, 0, 0, 0, 0, 0, 0, 0, 0, 0, 0, 0, 0, 0, 0, 0, 0, 0, 0, 1, 1, 2, 3, 5, 7, 7, 8, 8, 8, 9, 9, 9, 8, 7, 5, 3, 0, -2, -4, -5, -6, -6, -6]","[0, 0, 0, 0, 0, 0, 0, 0, 0, 0, 0, 0, 0, 0, 0, 0, 0, 0, 0, 0, 0, 0, 0, 0, 0, 0]","[0, 0, 0, 0, 0, 0, 0, 0, 0, 0, 0, 0, 0, 0, 0, 0, 0, 0, 0, 0, 0, -2, -8, -15, -24, -35, -47, -62, -79, -97, -117, -134, -157, -179, -198, -215, -232, -247, -264, -277, -288, -297, -306, -310, -313, -313]"
"100","100","603.5","603.5","black","no","prac","3","legacy","legacy","w.png","w.png","g.png","w.png","2","legacy","0","relative","1","undefined","NA","green","NA","undefined","1","undefined","undefined","green","2","0","3","0","29","0","NA","29","29","29","29","29","0","29","29","29","29","0","4","NA","NA","29","0","0","0","0","0","0","0","29","11/02/20 16:41:52","Default description","yes","simont_HV.osexp","C:\Users\admin\Desktop\채은\!MouseTracking_final","no","sans","no","18","no","black","no","yes","768","290","None","290","None","legacy","29","29","2","C:/Users/admin/Desktop/채은/!MouseTracking_final/subject-19.csv","legacy","1","2","2","Kafkaesque Koffka","3.2.6","0","green","space","NA","None","green","start","space","NA","NA","NA","NA","829","92835","NA","250","829","395","26301","NA","NA","NA","NA","2","legacy","1024","2","48000","-16","experiment","19","odd","legacy","red","green","blue","yellow","1","27786","NA","NA","210252","1480","NA","208667","209171","209423","208271","NA","1484","210271","211271","209171","209423","NA","NA","NA","NA","208271","NA","NA","NA","NA","NA","NA","120622","208270","[209172.0, 209182.0, 209192.0, 209202.0, 209212.0, 209222.0, 209232.0, 209242.0, 209252.0, 209262.0, 209272.0, 209282.0, 209292.0, 209302.0, 209312.0, 209322.0, 209332.0, 209342.0, 209352.0, 209362.0, 209372.0, 209382.0, 209392.0, 209402.0, 209412.0, 209422.0]","[209423.0, 209433.0, 209443.0, 209453.0, 209463.0, 209473.0, 209483.0, 209493.0, 209503.0, 209513.0, 209523.0, 209533.0, 209543.0, 209553.0, 209563.0, 209573.0, 209583.0, 209593.0, 209603.0, 209613.0, 209623.0, 209633.0, 209643.0, 209653.0, 209663.0, 209673.0, 209683.0, 209693.0, 209703.0, 209713.0, 209723.0, 209733.0, 209743.0, 209753.0, 209763.0, 209773.0, 209783.0, 209793.0, 209803.0, 209813.0, 209823.0, 209833.0, 209843.0, 209853.0, 209863.0, 209873.0, 209883.0, 209893.0, 209903.0, 209913.0, 209923.0, 209933.0, 209943.0, 209953.0, 209963.0, 209964, 209974.0, 209984.0, 209994.0, 210004.0, 210014.0, 210024.0, 210034.0, 210044.0, 210054.0, 210064.0, 210074.0, 210084.0, 210094.0, 210104.0, 210114.0, 210124.0, 210134.0, 210144.0, 210154.0, 210164.0, 210174.0, 210184.0, 210194.0, 210204.0, 210214.0, 210224.0, 210234.0, 210244.0, 210252]","example_experiment","30","18105","30","yes","768","3","[0, 0, 0, 0, 0, 0, 0, 0, 0, 0, 0, 0, 0, 0, 0, 0, 0, 0, 0, 0, 0, 0, 0, 0, 0, 0]","[0, 0, 0, 0, 0, 0, 0, 0, 0, 0, 0, 0, 0, 0, 0, 0, 0, 0, 0, 0, 0, 0, 0, 0, 0, 0, 0, 0, 0, 0, 4, 15, 36, 63, 89, 123, 149, 170, 198, 227, 256, 282, 308, 324, 338, 346, 351, 353, 353, 353, 353, 353, 353, 353, 353, 353, 353, 353, 353, 353, 353, 353, 353, 353, 353, 353, 353, 353, 353, 353, 353, 353, 353, 353, 353, 353, 353, 353, 350, 347, 343, 340, 339, 339, 339]","[0, 0, 0, 0, 0, 0, 0, 0, 0, 0, 0, 0, 0, 0, 0, 0, 0, 0, 0, 0, 0, 0, 0, 0, 0, 0]","[0, 0, 0, 0, 0, 0, 0, 0, 0, 0, 0, 0, 0, 0, 0, 0, 0, 0, 0, 0, 0, 0, 0, 0, 0, 0, 0, 0, 0, 0, 0, 0, 1, 3, 5, 5, 5, 5, 5, 5, 5, 5, 5, 5, 5, 4, 4, 4, 4, 4, 4, 4, 4, 4, 4, 4, 4, 4, 4, 4, 4, 4, 4, 4, 4, 4, 4, 4, 4, 4, 4, 4, 4, 4, 4, 4, 4, 4, 3, 2, 2, 1, 0, 0, 0]"
"100","100","603.5","603.5","black","no","block1","0","legacy","legacy","w.png","r.png","w.png","w.png","1","legacy","0","relative","undefined","undefined","NA","green","NA","undefined","1","undefined","undefined","red","1","0","3","0","30","0","NA","30","30","30","30","30","0","30","30","30","30","0","4","NA","NA","30","0","0","0","0","0","0","0","30","11/02/20 16:41:52","Default description","yes","simont_HV.osexp","C:\Users\admin\Desktop\채은\!MouseTracking_final","no","sans","no","18","no","black","no","yes","768","1280","None","290","1280","legacy","0","29","1","C:/Users/admin/Desktop/채은/!MouseTracking_final/subject-19.csv","legacy","1","0","0","Kafkaesque Koffka","3.2.6","0","None","space","NA","None","green","None","space","space","NA","NA","NA","1500","92835","NA","250","829","1500","26301","62487","NA","NA","NA","2","legacy","1024","2","48000","-16","experiment","19","odd","legacy","red","green","blue","yellow","1","27786","NA","NA","210252","1480","NA","208667","209171","209423","273870","275370","1484","275511","276511","209171","209423","211316","NA","NA","NA","273870","273804","NA","NA","NA","NA","NA","120622","273869","[209172.0, 209182.0, 209192.0, 209202.0, 209212.0, 209222.0, 209232.0, 209242.0, 209252.0, 209262.0, 209272.0, 209282.0, 209292.0, 209302.0, 209312.0, 209322.0, 209332.0, 209342.0, 209352.0, 209362.0, 209372.0, 209382.0, 209392.0, 209402.0, 209412.0, 209422.0]","[209423.0, 209433.0, 209443.0, 209453.0, 209463.0, 209473.0, 209483.0, 209493.0, 209503.0, 209513.0, 209523.0, 209533.0, 209543.0, 209553.0, 209563.0, 209573.0, 209583.0, 209593.0, 209603.0, 209613.0, 209623.0, 209633.0, 209643.0, 209653.0, 209663.0, 209673.0, 209683.0, 209693.0, 209703.0, 209713.0, 209723.0, 209733.0, 209743.0, 209753.0, 209763.0, 209773.0, 209783.0, 209793.0, 209803.0, 209813.0, 209823.0, 209833.0, 209843.0, 209853.0, 209863.0, 209873.0, 209883.0, 209893.0, 209903.0, 209913.0, 209923.0, 209933.0, 209943.0, 209953.0, 209963.0, 209964, 209974.0, 209984.0, 209994.0, 210004.0, 210014.0, 210024.0, 210034.0, 210044.0, 210054.0, 210064.0, 210074.0, 210084.0, 210094.0, 210104.0, 210114.0, 210124.0, 210134.0, 210144.0, 210154.0, 210164.0, 210174.0, 210184.0, 210194.0, 210204.0, 210214.0, 210224.0, 210234.0, 210244.0, 210252]","example_experiment","30","18105","30","yes","768","0","[0, 0, 0, 0, 0, 0, 0, 0, 0, 0, 0, 0, 0, 0, 0, 0, 0, 0, 0, 0, 0, 0, 0, 0, 0, 0]","[0, 0, 0, 0, 0, 0, 0, 0, 0, 0, 0, 0, 0, 0, 0, 0, 0, 0, 0, 0, 0, 0, 0, 0, 0, 0, 0, 0, 0, 0, 4, 15, 36, 63, 89, 123, 149, 170, 198, 227, 256, 282, 308, 324, 338, 346, 351, 353, 353, 353, 353, 353, 353, 353, 353, 353, 353, 353, 353, 353, 353, 353, 353, 353, 353, 353, 353, 353, 353, 353, 353, 353, 353, 353, 353, 353, 353, 353, 350, 347, 343, 340, 339, 339, 339]","[0, 0, 0, 0, 0, 0, 0, 0, 0, 0, 0, 0, 0, 0, 0, 0, 0, 0, 0, 0, 0, 0, 0, 0, 0, 0]","[0, 0, 0, 0, 0, 0, 0, 0, 0, 0, 0, 0, 0, 0, 0, 0, 0, 0, 0, 0, 0, 0, 0, 0, 0, 0, 0, 0, 0, 0, 0, 0, 1, 3, 5, 5, 5, 5, 5, 5, 5, 5, 5, 5, 5, 4, 4, 4, 4, 4, 4, 4, 4, 4, 4, 4, 4, 4, 4, 4, 4, 4, 4, 4, 4, 4, 4, 4, 4, 4, 4, 4, 4, 4, 4, 4, 4, 4, 3, 2, 2, 1, 0, 0, 0]"
"100","100","602.290322581","602.290322581","black","no","block1","0","legacy","legacy","w.png","w.png","w.png","b.png","1","legacy","0","relative","1","undefined","NA","blue","NA","undefined","1","undefined","undefined","blue","3","0","3","0","31","0","NA","31","31","31","31","31","0","31","31","31","31","0","4","NA","NA","31","0","0","0","0","0","0","0","31","11/02/20 16:41:52","Default description","yes","simont_HV.osexp","C:\Users\admin\Desktop\채은\!MouseTracking_final","no","sans","no","18","no","black","no","yes","768","180","None","180","160","legacy","1","29","1","C:/Users/admin/Desktop/채은/!MouseTracking_final/subject-19.csv","legacy","1","1","0","Kafkaesque Koffka","3.2.6","0","blue","space","NA","None","blue","start","space","space","NA","NA","NA","566","92835","NA","250","566","807","26301","62487","NA","NA","NA","2","legacy","1024","2","48000","-16","experiment","19","odd","legacy","red","green","blue","yellow","2","27786","NA","NA","278746","1480","NA","277424","277928","278180","276616","275370","1484","278751","279751","277928","278180","211316","NA","NA","NA","276616","273804","NA","NA","NA","NA","NA","120622","276614","[277929.0, 277939.0, 277949.0, 277959.0, 277969.0, 277979.0, 277989.0, 277999.0, 278009.0, 278019.0, 278029.0, 278039.0, 278049.0, 278059.0, 278069.0, 278079.0, 278089.0, 278099.0, 278109.0, 278119.0, 278129.0, 278139.0, 278149.0, 278159.0, 278169.0, 278179.0]","[278180.0, 278190.0, 278200.0, 278210.0, 278220.0, 278230.0, 278240.0, 278250.0, 278260.0, 278270.0, 278280.0, 278290.0, 278300.0, 278310.0, 278320.0, 278330.0, 278340.0, 278350.0, 278360.0, 278370.0, 278380.0, 278390.0, 278400.0, 278410.0, 278420.0, 278430.0, 278440.0, 278450.0, 278460.0, 278470.0, 278480.0, 278490.0, 278500.0, 278510.0, 278520.0, 278530.0, 278540.0, 278550.0, 278560.0, 278570.0, 278580.0, 278590.0, 278600.0, 278610.0, 278620.0, 278630.0, 278640.0, 278650.0, 278660.0, 278670.0, 278680.0, 278690.0, 278700.0, 278710.0, 278720.0, 278730.0, 278740.0, 278746]","example_experiment","31","18671","31","yes","768","0","[0, 0, 0, 0, 0, 0, 0, 0, 0, 0, 0, 0, 0, 0, 0, 0, 0, 0, 0, 0, 0, 0, 0, 0, 0, 0]","[0, 0, 0, 0, 0, 0, 0, 0, 0, 0, 0, 0, 0, 0, 0, 0, 0, 0, 0, 0, 1, 3, 3, 4, 4, 4, 5, 6, 7, 7, 7, 7, 7, 7, 7, 7, 7, 7, 7, 7, 7, 7, 7, 7, 7, 7, 6, 6, 4, 3, 0, -1, -3, -3, -3, -3, -3, -3]","[0, 0, 0, 0, 0, 0, 0, 0, 0, 0, 0, 0, 0, 0, 0, 0, 0, 0, 0, 0, 0, 0, 0, 0, 0, 0]","[0, 0, 0, 0, 0, 0, 0, 0, 0, 0, 0, 0, 0, 0, 0, 0, 0, 0, 0, -6, -20, -36, -55, -78, -100, -125, -144, -164, -179, -192, -202, -209, -215, -218, -220, -220, -220, -220, -220, -220, -220, -220, -220, -222, -224, -227, -231, -238, -249, -261, -279, -292, -301, -306, -307, -307, -307, -307]"
"100","100","603.34375","603.34375","black","no","block1","1","legacy","legacy","w.png","r.png","w.png","w.png","1","legacy","0","relative","1","undefined","NA","red","NA","undefined","1","undefined","undefined","red","1","0","3","0","32","0","NA","32","32","32","32","32","0","32","32","32","32","0","4","NA","NA","32","0","0","0","0","0","0","0","32","11/02/20 16:41:52","Default description","yes","simont_HV.osexp","C:\Users\admin\Desktop\채은\!MouseTracking_final","no","sans","no","18","no","black","no","yes","768","40","None","40","None","legacy","2","29","1","C:/Users/admin/Desktop/채은/!MouseTracking_final/subject-19.csv","legacy","1","1","1","Kafkaesque Koffka","3.2.6","0","red","space","NA","None","red","start","space","space","NA","NA","NA","636","92835","NA","250","636","296","26301","62487","NA","NA","NA","2","legacy","1024","2","48000","-16","experiment","19","odd","legacy","red","green","blue","yellow","1","27786","NA","NA","281547","1480","NA","280155","280659","280911","279858","275370","1484","281551","282551","280659","280911","211316","NA","NA","NA","279858","273804","NA","NA","NA","NA","NA","120622","279856","[280660.0, 280670.0, 280680.0, 280690.0, 280700.0, 280710.0, 280720.0, 280730.0, 280740.0, 280750.0, 280760.0, 280770.0, 280780.0, 280790.0, 280800.0, 280810.0, 280820.0, 280830.0, 280840.0, 280850.0, 280860.0, 280870.0, 280880.0, 280890.0, 280900.0, 280910.0]","[280911.0, 280921.0, 280931.0, 280941.0, 280951.0, 280961.0, 280971.0, 280981.0, 280991.0, 281001.0, 281011.0, 281021.0, 281031.0, 281041.0, 281051.0, 281061.0, 281071.0, 281081.0, 281091.0, 281101.0, 281111.0, 281121.0, 281131.0, 281141.0, 281151.0, 281161.0, 281171.0, 281181.0, 281191.0, 281201.0, 281211.0, 281221.0, 281231.0, 281241.0, 281251.0, 281261.0, 281271.0, 281281.0, 281291.0, 281301.0, 281311.0, 281320, 281330.0, 281340.0, 281350.0, 281360.0, 281370.0, 281380.0, 281390.0, 281400.0, 281410.0, 281420.0, 281430.0, 281440.0, 281450.0, 281460.0, 281470.0, 281480.0, 281490.0, 281500.0, 281510.0, 281520.0, 281530.0, 281540.0, 281547]","example_experiment","32","19307","32","yes","768","1","[0, 0, 0, 0, 0, 0, 0, 0, 0, 0, 0, 0, 0, 0, 0, 0, 0, 0, 0, 0, 0, 0, 0, 0, 0, 0]","[0, 0, 0, 0, 0, -1, -2, -3, -4, -7, -12, -18, -27, -38, -55, -76, -99, -128, -157, -181, -201, -214, -227, -237, -249, -260, -270, -280, -290, -295, -298, -298, -299, -298, -296, -293, -292, -290, -287, -284, -282, -282, -282, -282, -282, -282, -282, -282, -282, -282, -282, -282, -284, -286, -286, -286, -286, -286, -286, -287, -288, -290, -291, -292, -293]","[0, 0, 0, 0, 0, 0, 0, 0, 0, 0, 0, 0, 0, 0, 0, 0, 0, 0, 0, 0, 0, 0, 0, 0, 0, 0]","[0, 0, 0, 0, 0, 2, 2, 3, 3, 4, 5, 6, 8, 9, 9, 9, 9, 7, 7, 7, 7, 7, 7, 8, 9, 9, 9, 9, 9, 9, 9, 9, 9, 9, 9, 8, 8, 7, 6, 5, 5, 5, 5, 5, 5, 5, 5, 5, 5, 5, 5, 5, 5, 5, 5, 5, 5, 5, 5, 5, 6, 7, 7, 8, 8]"
"100","100","599.727272727","599.727272727","black","no","block1","2","legacy","legacy","w.png","w.png","w.png","y.png","2","legacy","0","relative","1","undefined","NA","yellow","NA","undefined","1","undefined","undefined","yellow","4","0","3","0","33","0","NA","33","33","33","33","33","0","33","33","33","33","0","4","NA","NA","33","0","0","0","0","0","0","0","33","11/02/20 16:41:52","Default description","yes","simont_HV.osexp","C:\Users\admin\Desktop\채은\!MouseTracking_final","no","sans","no","18","no","black","no","yes","768","10","None","10","None","legacy","3","29","1","C:/Users/admin/Desktop/채은/!MouseTracking_final/subject-19.csv","legacy","2","1","1","Kafkaesque Koffka","3.2.6","0","yellow","space","NA","None","yellow","start","space","space","NA","NA","NA","484","92835","NA","250","484","334","26301","62487","NA","NA","NA","2","legacy","1024","2","48000","-16","experiment","19","odd","legacy","red","green","blue","yellow","2","27786","NA","NA","284243","1480","NA","283003","283507","283759","282668","275370","1484","284261","285261","283507","283759","211316","NA","NA","NA","282668","273804","NA","NA","NA","NA","NA","120622","282667","[283508.0, 283518.0, 283528.0, 283538.0, 283548.0, 283558.0, 283568.0, 283578.0, 283588.0, 283598.0, 283608.0, 283618.0, 283628.0, 283638.0, 283648.0, 283658.0, 283668.0, 283678.0, 283688.0, 283698.0, 283708.0, 283718.0, 283728.0, 283738.0, 283748.0, 283758.0]","[283759.0, 283769.0, 283779.0, 283789.0, 283799.0, 283809.0, 283819.0, 283829.0, 283839.0, 283849.0, 283859.0, 283869.0, 283879.0, 283889.0, 283899.0, 283909.0, 283919.0, 283929.0, 283939.0, 283949.0, 283959.0, 283969.0, 283979.0, 283989.0, 283999.0, 284009.0, 284019.0, 284029.0, 284039.0, 284049.0, 284059.0, 284069.0, 284079.0, 284089.0, 284099.0, 284109.0, 284119.0, 284129.0, 284139.0, 284149.0, 284159.0, 284169.0, 284179.0, 284189.0, 284199.0, 284209.0, 284219.0, 284229.0, 284239.0, 284243]","example_experiment","33","19791","33","yes","768","2","[0, 0, 0, 0, 0, 0, 0, 0, 0, 0, 0, 0, 0, 0, 0, 0, 0, 0, 0, 0, 0, 0, 0, 0, 0, 0]","[0, 0, 0, 0, 0, 0, 0, 0, 0, 0, 0, 0, 0, 0, 0, 2, 5, 9, 13, 17, 21, 21, 21, 18, 14, 9, 4, -2, -6, -9, -10, -12, -13, -13, -14, -14, -15, -15, -15, -15, -15, -15, -14, -13, -12, -10, -8, -5, -1, 0]","[0, 0, 0, 0, 0, 0, 0, 0, 0, 0, 0, 0, 0, 0, 0, 0, 0, 0, 0, 0, 0, 0, 0, 0, 0, 0]","[0, 0, 2, 2, 3, 3, 4, 4, 4, 4, 4, 5, 8, 13, 21, 30, 41, 55, 69, 86, 108, 127, 144, 161, 179, 195, 209, 222, 233, 240, 244, 247, 249, 251, 253, 254, 256, 257, 258, 259, 261, 267, 272, 280, 287, 295, 303, 310, 318, 321]"
"100","100","596.382352941","596.382352941","black","no","block1","3","legacy","legacy","w.png","w.png","g.png","w.png","2","legacy","0","relative","1","undefined","NA","green","NA","undefined","1","undefined","undefined","green","2","0","3","0","34","0","NA","34","34","34","34","34","0","34","34","34","34","0","4","NA","NA","34","0","0","0","0","0","0","0","34","11/02/20 16:41:52","Default description","yes","simont_HV.osexp","C:\Users\admin\Desktop\채은\!MouseTracking_final","no","sans","no","18","no","black","no","yes","768","180","None","180","None","legacy","4","29","2","C:/Users/admin/Desktop/채은/!MouseTracking_final/subject-19.csv","legacy","1","2","1","Kafkaesque Koffka","3.2.6","0","green","space","NA","None","green","start","space","space","NA","NA","NA","486","92835","NA","250","486","848","26301","62487","NA","NA","NA","2","legacy","1024","2","48000","-16","experiment","19","odd","legacy","red","green","blue","yellow","1","27786","NA","NA","287457","1480","NA","286215","286719","286971","285366","275370","1484","287461","288461","286719","286971","211316","NA","NA","NA","285366","273804","NA","NA","NA","NA","NA","120622","285364","[286720.0, 286730.0, 286740.0, 286750.0, 286760.0, 286770.0, 286780.0, 286790.0, 286800.0, 286810.0, 286820.0, 286830.0, 286840.0, 286850.0, 286860.0, 286870.0, 286880.0, 286890.0, 286900.0, 286910.0, 286920.0, 286930.0, 286940.0, 286950.0, 286960.0, 286970.0]","[286971.0, 286981.0, 286991.0, 287001.0, 287011.0, 287021.0, 287031.0, 287041.0, 287051.0, 287061.0, 287071.0, 287081.0, 287091.0, 287101.0, 287111.0, 287121.0, 287131.0, 287141.0, 287151.0, 287161.0, 287171.0, 287181.0, 287191.0, 287201.0, 287211.0, 287221.0, 287231.0, 287241.0, 287251.0, 287261.0, 287271.0, 287281.0, 287291.0, 287301.0, 287311.0, 287321.0, 287331.0, 287341.0, 287351.0, 287361.0, 287371.0, 287381.0, 287391.0, 287401.0, 287411.0, 287421.0, 287431.0, 287441.0, 287451.0, 287457]","example_experiment","34","20277","34","yes","768","1","[0, 0, 0, 0, 0, 0, 0, 0, 0, 0, 0, 0, 0, 0, 0, 0, 0, 0, 0, 0, 0, 0, 0, 0, 0, 0]","[0, 0, 0, 0, 0, 0, 0, 0, 0, 0, 0, 0, 0, 0, 0, 0, 0, 0, 0, 3, 10, 29, 54, 89, 123, 155, 176, 193, 208, 221, 231, 237, 240, 241, 241, 243, 245, 248, 251, 254, 256, 259, 262, 268, 275, 284, 293, 299, 302, 303]","[0, 0, 0, 0, 0, 0, 0, 0, 0, 0, 0, 0, 0, 0, 0, 0, 0, 0, 0, 0, 0, 0, 0, 0, 0, 0]","[0, 0, 0, 0, 0, 0, 0, 0, 0, 0, 0, 0, 0, 0, 0, 0, 0, 0, 0, 0, 0, 0, -4, -8, -11, -13, -13, -13, -13, -11, -9, -8, -7, -7, -6, -6, -6, -6, -6, -6, -6, -6, -6, -6, -6, -6, -6, -6, -5, -5]"
