"acc","accuracy","average_response_time","avg_rt","background","bidi","block","btwC","canvas_backend","clock_backend","colD","colL","colR","colU","color","color_backend","compensation","coordinates","correct","correct_answerins","correct_button_get_response_bef","correct_button_get_response_pos","correct_button_get_start_click","correct_get_response_bef","correct_get_response_pos","correct_get_start_click","correct_instructions","correct_resp","correctkey","count_answerins","count_break1","count_break3","count_correct_f","count_experiment","count_feedback","count_fixation500s","count_get_response_bef","count_get_response_pos","count_get_start_click","count_incorrect_f","count_instructions","count_iti1000","count_logger","count_present_stimulus","count_present_stimulus2","count_start_gogo","count_start_gogo_1","count_start_gogo_1_1","count_start_gogo_1_2","count_start_screen","count_stimuli1","count_stimuli2","count_stimuli3","count_stimuli4","count_stimuli5","count_stimuli6","count_stimuli_prac","count_trial","datetime","description","disable_garbage_collection","experiment_file","experiment_path","font_bold","font_family","font_italic","font_size","font_underline","foreground","form_clicks","fullscreen","height","initiation_time","initiation_time_get_response_bef","initiation_time_get_response_pos","initiation_time_get_start_click","keyboard_backend","live_row","live_row_stimuli_prac","loc","logfile","mouse_backend","n0","n1","n2","opensesame_codename","opensesame_version","repeat_cycle","response","response_answerins","response_feedback","response_get_response_bef","response_get_response_pos","response_get_start_click","response_instructions","response_start_gogo","response_start_gogo_1","response_start_gogo_1_1","response_start_gogo_1_2","response_time","response_time_answerins","response_time_feedback","response_time_get_response_bef","response_time_get_response_pos","response_time_get_start_click","response_time_instructions","response_time_start_gogo","response_time_start_gogo_1","response_time_start_gogo_1_1","response_time_start_gogo_1_2","round_decimals","sampler_backend","sound_buf_size","sound_channels","sound_freq","sound_sample_size","start","subject_nr","subject_parity","synth_backend","tar1L","tar2R","tar3U","tar4D","taskType","time_answerins","time_break1","time_break3","time_correct_f","time_experiment","time_feedback","time_fixation500s","time_get_response_bef","time_get_response_pos","time_get_start_click","time_incorrect_f","time_instructions","time_iti1000","time_logger","time_present_stimulus","time_present_stimulus2","time_start_gogo","time_start_gogo_1","time_start_gogo_1_1","time_start_gogo_1_2","time_start_screen","time_stimuli1","time_stimuli2","time_stimuli3","time_stimuli4","time_stimuli5","time_stimuli6","time_stimuli_prac","time_trial","timestamps_get_response_bef","timestamps_get_response_pos","title","total_correct","total_response_time","total_responses","uniform_coordinates","width","withC","xpos_get_response_bef","xpos_get_response_pos","ypos_get_response_bef","ypos_get_response_pos"
"100","100","595","595","black","no","prac","0","legacy","legacy","w.png","w.png","r.png","w.png","1","legacy","0","relative","1","undefined","NA","red","NA","undefined","1","undefined","undefined","red","1","0","3","0","0","0","NA","0","0","0","0","0","0","0","0","0","0","0","4","NA","NA","0","0","0","0","0","0","0","0","0","11/06/20 17:40:47","Default description","yes","simont_HV.osexp","C:\Users\admin\Desktop\채은\!MouseTracking_final","no","sans","no","18","no","black","no","yes","768","70","None","70","0","legacy","0","0","2","C:/Users/admin/Desktop/채은/!MouseTracking_final/subject-32.csv","legacy","2","0","0","Kafkaesque Koffka","3.2.6","0","red","space","NA","None","red","start","space","NA","NA","NA","NA","595","26442","NA","250","595","1098","2927","NA","NA","NA","NA","2","legacy","1024","2","48000","-16","experiment","32","even","legacy","red","green","blue","yellow","1","4382","NA","NA","33343","1450","NA","31991","32495","32747","30890","NA","1454","33352","34352","32495","32747","NA","NA","NA","NA","30890","NA","NA","NA","NA","NA","NA","30825","30889","[32496.0, 32506.0, 32516.0, 32526.0, 32536.0, 32546.0, 32556.0, 32566.0, 32576.0, 32586.0, 32596.0, 32606.0, 32616.0, 32626.0, 32636.0, 32646.0, 32656.0, 32666.0, 32676.0, 32686.0, 32696.0, 32706.0, 32716.0, 32726.0, 32736.0, 32746.0]","[32747.0, 32757.0, 32767.0, 32777.0, 32787.0, 32797.0, 32807.0, 32817.0, 32827.0, 32837.0, 32847.0, 32857.0, 32867.0, 32877.0, 32887.0, 32897.0, 32907.0, 32917.0, 32927.0, 32937.0, 32947.0, 32957.0, 32967.0, 32977.0, 32987.0, 32997.0, 33007.0, 33017.0, 33027.0, 33037.0, 33047.0, 33057.0, 33067.0, 33077.0, 33087.0, 33097.0, 33107.0, 33117.0, 33127.0, 33137.0, 33147.0, 33157.0, 33167.0, 33177.0, 33186, 33197.0, 33207.0, 33217.0, 33227.0, 33237.0, 33247.0, 33257.0, 33267.0, 33277.0, 33287.0, 33297.0, 33307.0, 33317.0, 33327.0, 33337.0, 33342]","example_experiment","1","595","1","yes","768","0","[0, 0, 0, 0, 0, 0, 0, 0, 0, 0, 0, 0, 0, 0, 0, 0, 0, 0, 0, 0, 0, 0, 0, 0, 0, 0]","[0, 0, 0, 0, 0, 0, 0, 0, -2, -6, -11, -18, -24, -30, -40, -52, -67, -85, -105, -123, -141, -159, -174, -188, -202, -211, -219, -225, -230, -234, -236, -236, -236, -236, -236, -236, -236, -236, -236, -236, -236, -236, -236, -236, -236, -236, -236, -236, -236, -237, -240, -246, -253, -263, -273, -282, -291, -299, -306, -309, -309]","[0, 0, 0, 0, 0, 0, 0, 0, 0, 0, 0, 0, 0, 0, 0, 0, 0, 0, 0, 0, 0, 0, 0, 0, 0, 0]","[0, 0, 0, 0, 0, 0, 0, 0, 0, -1, -1, -1, -1, -1, -1, -1, -1, -1, -1, -1, -1, -1, -1, -1, -2, -3, -3, -3, -3, -3, -3, -3, -3, -3, -3, -3, -3, -3, -3, -3, -3, -3, -3, -3, -3, -3, -3, -3, -3, -3, -3, -3, -3, -2, -2, -2, -2, -2, -3, -3, -3]"
"100","100","592.5","592.5","black","no","prac","0","legacy","legacy","w.png","w.png","w.png","b.png","1","legacy","0","relative","1","undefined","NA","blue","NA","undefined","1","undefined","undefined","blue","3","0","3","0","1","0","NA","1","1","1","1","1","0","1","1","1","1","0","4","NA","NA","1","0","0","0","0","0","0","0","1","11/06/20 17:40:47","Default description","yes","simont_HV.osexp","C:\Users\admin\Desktop\채은\!MouseTracking_final","no","sans","no","18","no","black","no","yes","768","240","None","240","0","legacy","1","1","1","C:/Users/admin/Desktop/채은/!MouseTracking_final/subject-32.csv","legacy","1","2","0","Kafkaesque Koffka","3.2.6","0","blue","space","NA","None","blue","start","space","NA","NA","NA","NA","590","26442","NA","250","590","623","2927","NA","NA","NA","NA","2","legacy","1024","2","48000","-16","experiment","32","even","legacy","red","green","blue","yellow","2","4382","NA","NA","36445","1450","NA","35099","35602","35854","34474","NA","1454","36463","37463","35602","35854","NA","NA","NA","NA","34474","NA","NA","NA","NA","NA","NA","30825","34473","[35603.0, 35613.0, 35623.0, 35633.0, 35643.0, 35653.0, 35663.0, 35673.0, 35683.0, 35693.0, 35703.0, 35713.0, 35723.0, 35733.0, 35743.0, 35753.0, 35763.0, 35773.0, 35783.0, 35793.0, 35803.0, 35813.0, 35823.0, 35833.0, 35843.0, 35853.0]","[35854.0, 35864.0, 35874.0, 35884.0, 35894.0, 35904.0, 35914.0, 35924.0, 35934.0, 35944.0, 35954.0, 35964.0, 35974.0, 35984.0, 35994.0, 36004.0, 36014.0, 36024.0, 36034.0, 36044.0, 36054.0, 36064.0, 36074.0, 36084.0, 36094.0, 36104.0, 36114.0, 36124.0, 36134.0, 36144.0, 36154.0, 36164.0, 36174.0, 36184.0, 36194.0, 36204.0, 36214.0, 36224.0, 36234.0, 36244.0, 36254.0, 36264.0, 36274.0, 36284.0, 36294.0, 36304.0, 36314.0, 36324.0, 36334.0, 36344.0, 36354.0, 36364.0, 36374.0, 36384.0, 36394.0, 36404.0, 36414.0, 36424.0, 36434.0, 36444.0, 36444]","example_experiment","2","1185","2","yes","768","0","[0, 0, 0, 0, 0, 0, 0, 0, 0, 0, 0, 0, 0, 0, 0, 0, 0, 0, 0, 0, 0, 0, 0, 0, 0, 0]","[0, 0, 0, 0, 0, 0, 0, 0, 0, 0, 0, 0, 0, 0, 0, 0, 0, 0, 0, 0, 0, 0, 0, 0, 0, 0, 0, 1, 2, 3, 4, 5, 6, 6, 6, 5, 2, -1, -2, -3, -3, -3, -3, -2, -2, -1, -1, -1, -1, -1, 0, 1, 1, 2, 2, 3, 4, 4, 5, 5, 5]","[0, 0, 0, 0, 0, 0, 0, 0, 0, 0, 0, 0, 0, 0, 0, 0, 0, 0, 0, 0, 0, 0, 0, 0, 0, 0]","[0, 0, 0, 0, 0, 0, 0, 0, 0, 0, 0, 0, 0, 0, 0, 0, 0, 0, 0, 0, 0, 0, 0, 0, 0, -3, -8, -15, -22, -32, -44, -61, -81, -104, -131, -155, -181, -203, -222, -237, -246, -252, -258, -263, -267, -270, -272, -275, -276, -279, -280, -282, -283, -285, -287, -288, -289, -290, -291, -291, -291]"
"100","100","647.666666667","647.666666667","black","no","prac","2","legacy","legacy","w.png","g.png","w.png","w.png","2","legacy","0","relative","1","undefined","NA","green","NA","undefined","1","undefined","undefined","green","2","0","3","0","2","0","NA","2","2","2","2","2","0","2","2","2","2","0","4","NA","NA","2","0","0","0","0","0","0","0","2","11/06/20 17:40:47","Default description","yes","simont_HV.osexp","C:\Users\admin\Desktop\채은\!MouseTracking_final","no","sans","no","18","no","black","no","yes","768","350","None","350","70","legacy","2","2","1","C:/Users/admin/Desktop/채은/!MouseTracking_final/subject-32.csv","legacy","2","1","2","Kafkaesque Koffka","3.2.6","0","green","space","NA","None","green","start","space","NA","NA","NA","NA","758","26442","NA","250","758","1448","2927","NA","NA","NA","NA","2","legacy","1024","2","48000","-16","experiment","32","even","legacy","red","green","blue","yellow","1","4382","NA","NA","40556","1450","NA","39041","39545","39797","37590","NA","1454","40563","41563","39545","39797","NA","NA","NA","NA","37590","NA","NA","NA","NA","NA","NA","30825","37589","[39546.0, 39556.0, 39566.0, 39576.0, 39586.0, 39596.0, 39606.0, 39616.0, 39626.0, 39636.0, 39646.0, 39656.0, 39666.0, 39676.0, 39686.0, 39696.0, 39706.0, 39716.0, 39726.0, 39736.0, 39746.0, 39756.0, 39766.0, 39776.0, 39786.0, 39796.0]","[39797.0, 39807.0, 39817.0, 39827.0, 39837.0, 39847.0, 39857.0, 39867.0, 39877.0, 39887.0, 39897.0, 39907.0, 39917.0, 39927.0, 39937.0, 39947.0, 39957.0, 39967.0, 39977.0, 39987.0, 39997.0, 40007.0, 40017.0, 40027.0, 40037.0, 40047.0, 40057.0, 40067.0, 40077.0, 40087.0, 40097.0, 40107.0, 40117.0, 40127.0, 40137.0, 40147.0, 40157.0, 40167.0, 40177.0, 40187.0, 40197.0, 40207.0, 40217.0, 40227.0, 40237.0, 40247.0, 40257.0, 40267.0, 40277.0, 40287.0, 40297.0, 40307.0, 40317.0, 40327.0, 40337.0, 40347.0, 40357.0, 40367.0, 40377.0, 40387.0, 40397.0, 40407.0, 40417.0, 40427.0, 40437.0, 40447.0, 40457.0, 40467.0, 40477.0, 40487.0, 40497.0, 40507.0, 40517.0, 40527.0, 40537.0, 40547.0, 40555]","example_experiment","3","1943","3","yes","768","4","[0, 0, 0, 0, 0, 0, 0, 0, 0, 0, 0, 0, 0, 0, 0, 0, 0, 0, 0, 0, 0, 0, 0, 0, 0, 0]","[0, 0, 0, 0, 0, 0, 0, 0, 0, 0, 0, 0, 0, 0, 0, 0, 0, 0, 0, 0, 0, 0, 0, 0, 0, 0, 0, 0, 0, 0, 0, 0, 0, 0, 0, 0, 2, 7, 15, 26, 44, 63, 85, 107, 129, 152, 170, 186, 200, 212, 221, 227, 229, 231, 232, 232, 232, 232, 233, 234, 235, 238, 241, 243, 248, 251, 255, 260, 266, 274, 287, 300, 313, 325, 335, 343, 347]","[0, 0, 0, 0, 0, 0, 0, 0, 0, 0, 0, 0, 0, 0, 0, 0, 0, 0, 0, 0, 0, 0, 0, 0, 0, 0]","[0, 0, 0, 0, 0, 0, 0, 0, 0, 0, 0, 0, 0, 0, 0, 0, 0, 0, 0, 0, 0, 0, 0, 0, 0, 0, 0, 0, 0, 0, 0, 0, 0, 0, 0, 0, 0, 0, 0, 0, 0, 0, 0, 1, 3, 4, 6, 8, 10, 11, 12, 12, 12, 12, 12, 12, 12, 12, 12, 12, 12, 12, 12, 12, 12, 11, 11, 10, 9, 8, 6, 4, 2, 1, 0, -1, -2]"
"100","100","627.25","627.25","black","no","prac","3","legacy","legacy","w.png","w.png","w.png","b.png","1","legacy","0","relative","1","undefined","NA","blue","NA","undefined","1","undefined","undefined","blue","3","0","3","0","3","0","NA","3","3","3","3","3","0","3","3","3","3","0","4","NA","NA","3","0","0","0","0","0","0","0","3","11/06/20 17:40:47","Default description","yes","simont_HV.osexp","C:\Users\admin\Desktop\채은\!MouseTracking_final","no","sans","no","18","no","black","no","yes","768","180","None","180","10","legacy","3","3","1","C:/Users/admin/Desktop/채은/!MouseTracking_final/subject-32.csv","legacy","1","2","1","Kafkaesque Koffka","3.2.6","0","blue","space","NA","None","blue","start","space","NA","NA","NA","NA","566","26442","NA","250","566","472","2927","NA","NA","NA","NA","2","legacy","1024","2","48000","-16","experiment","32","even","legacy","red","green","blue","yellow","2","4382","NA","NA","43476","1450","NA","42154","42657","42909","41680","NA","1454","43483","44483","42657","42909","NA","NA","NA","NA","41680","NA","NA","NA","NA","NA","NA","30825","41679","[42658.0, 42668.0, 42678.0, 42688.0, 42698.0, 42708.0, 42718.0, 42728.0, 42738.0, 42748.0, 42758.0, 42768.0, 42778.0, 42788.0, 42798.0, 42808.0, 42818.0, 42828.0, 42838.0, 42848.0, 42858.0, 42868.0, 42878.0, 42888.0, 42898.0, 42908.0]","[42909.0, 42919.0, 42929.0, 42939.0, 42949.0, 42959.0, 42969.0, 42979.0, 42989.0, 42999.0, 43009.0, 43019.0, 43029.0, 43039.0, 43049.0, 43059.0, 43069.0, 43079.0, 43089.0, 43099.0, 43109.0, 43119.0, 43129.0, 43139.0, 43149.0, 43159.0, 43169.0, 43179.0, 43189.0, 43199.0, 43209.0, 43219.0, 43229.0, 43239.0, 43249.0, 43259.0, 43269.0, 43279.0, 43289.0, 43299.0, 43309.0, 43319.0, 43329.0, 43339.0, 43349.0, 43359.0, 43369.0, 43379.0, 43389.0, 43399.0, 43409.0, 43419.0, 43429.0, 43439.0, 43449.0, 43459.0, 43469.0, 43475]","example_experiment","4","2509","4","yes","768","1","[0, 0, 0, 0, 0, 0, 0, 0, 0, 0, 0, 0, 0, 0, 0, 0, 0, 0, 0, 0, 0, 0, 0, 0, 0, 0]","[0, 0, 0, 0, 0, 0, 0, 0, 0, 0, 0, 0, 0, 0, 0, 0, 0, 0, 0, 0, 0, 0, 0, 0, 0, 0, 0, 0, 0, -3, -5, -6, -7, -7, -7, -6, -5, -3, -2, -2, -2, -1, -1, -1, -1, -1, -1, -1, -1, -1, -1, -1, -1, -1, -1, -1, -1, -1]","[0, 0, 0, 0, 0, 0, 0, 0, 0, 0, 0, 0, 0, 0, 0, 0, 0, 0, 0, 0, 0, 0, 0, 0, 0, 0]","[0, 0, 0, 0, 0, 0, 0, 0, 0, 0, 0, 0, 0, 0, 0, 0, 0, 0, 0, -2, -6, -12, -19, -30, -47, -68, -91, -118, -141, -168, -191, -211, -226, -239, -249, -257, -263, -270, -274, -280, -286, -290, -294, -297, -298, -299, -299, -299, -299, -299, -299, -299, -299, -299, -299, -299, -299, -299]"
"100","100","773.8","773.8","black","no","prac","1","legacy","legacy","w.png","w.png","g.png","w.png","2","legacy","0","relative","1","undefined","NA","green","NA","undefined","1","undefined","undefined","green","2","0","3","0","4","0","NA","4","4","4","4","4","0","4","4","4","4","0","4","NA","NA","4","0","0","0","0","0","0","0","4","11/06/20 17:40:47","Default description","yes","simont_HV.osexp","C:\Users\admin\Desktop\채은\!MouseTracking_final","no","sans","no","18","no","black","no","yes","768","460","None","460","None","legacy","4","4","2","C:/Users/admin/Desktop/채은/!MouseTracking_final/subject-32.csv","legacy","1","1","2","Kafkaesque Koffka","3.2.6","0","green","space","NA","None","green","start","space","NA","NA","NA","NA","1360","26442","NA","250","1360","432","2927","NA","NA","NA","NA","2","legacy","1024","2","48000","-16","experiment","32","even","legacy","red","green","blue","yellow","1","4382","NA","NA","47145","1450","NA","45030","45532","45784","44596","NA","1454","47153","48153","45532","45784","NA","NA","NA","NA","44596","NA","NA","NA","NA","NA","NA","30825","44594","[45533.0, 45543.0, 45553.0, 45563.0, 45573.0, 45583.0, 45593.0, 45603.0, 45613.0, 45623.0, 45633.0, 45643.0, 45653.0, 45663.0, 45673.0, 45683.0, 45693.0, 45703.0, 45713.0, 45723.0, 45733.0, 45743.0, 45753.0, 45763.0, 45773.0, 45783.0]","[45784.0, 45794.0, 45804.0, 45814.0, 45824.0, 45834.0, 45844.0, 45854.0, 45864.0, 45874.0, 45884.0, 45894.0, 45904.0, 45914.0, 45924.0, 45934.0, 45944.0, 45954.0, 45964.0, 45974.0, 45984.0, 45994.0, 46004.0, 46014.0, 46024.0, 46034.0, 46044.0, 46054.0, 46064.0, 46074.0, 46084.0, 46094.0, 46104.0, 46114.0, 46124.0, 46134.0, 46144.0, 46154.0, 46164.0, 46174.0, 46184.0, 46194.0, 46204.0, 46214.0, 46224.0, 46234.0, 46244.0, 46254.0, 46264.0, 46274.0, 46284.0, 46294.0, 46304.0, 46314.0, 46324.0, 46334.0, 46344.0, 46354.0, 46364.0, 46374.0, 46384.0, 46394.0, 46404.0, 46414.0, 46424.0, 46434.0, 46444.0, 46454.0, 46464.0, 46474.0, 46484.0, 46494.0, 46497, 46507.0, 46517.0, 46527.0, 46537.0, 46547.0, 46557.0, 46567.0, 46577.0, 46587.0, 46597.0, 46607.0, 46617.0, 46627.0, 46637.0, 46647.0, 46657.0, 46667.0, 46677.0, 46680, 46691.0, 46701.0, 46711.0, 46721.0, 46731.0, 46741.0, 46751.0, 46761.0, 46771.0, 46781.0, 46791.0, 46801.0, 46811.0, 46821.0, 46831.0, 46841.0, 46851.0, 46861.0, 46871.0, 46881.0, 46891.0, 46893, 46904.0, 46914.0, 46924.0, 46934.0, 46944.0, 46954.0, 46964.0, 46974.0, 46984.0, 46994.0, 47004.0, 47014.0, 47024.0, 47034.0, 47044.0, 47054.0, 47064.0, 47074.0, 47084.0, 47094.0, 47104.0, 47114.0, 47124.0, 47134.0, 47144.0, 47144]","example_experiment","5","3869","5","yes","768","3","[0, 0, 0, 0, 0, 0, 0, 0, 0, 0, 0, 0, 0, 0, 0, 0, 0, 0, 0, 0, 0, 0, 0, 0, 0, 0]","[0, 0, 0, 0, 0, 0, 0, 0, 0, 0, 0, 0, 0, 0, 0, 0, 0, 0, 0, 0, 0, 0, 0, 0, 0, 0, 0, 0, 0, 0, 0, 0, 0, 0, 0, 0, 0, 0, 0, 0, 0, 0, 0, 0, 0, 0, 0, 4, 9, 15, 24, 36, 52, 75, 97, 120, 141, 156, 172, 185, 197, 207, 214, 217, 218, 218, 218, 218, 218, 218, 218, 218, 218, 218, 218, 218, 218, 218, 218, 218, 219, 225, 235, 252, 273, 298, 323, 346, 361, 368, 369, 369, 369, 369, 369, 369, 369, 369, 368, 366, 365, 364, 362, 359, 355, 348, 340, 327, 312, 298, 286, 277, 271, 270, 267, 267, 267, 267, 267, 267, 267, 267, 267, 267, 267, 267, 267, 272, 279, 286, 294, 302, 311, 319, 327, 334, 338, 340, 340, 340]","[0, 0, 0, 0, 0, 0, 0, 0, 0, 0, 0, 0, 0, 0, 0, 0, 0, 0, 0, 0, 0, 0, 0, 0, 0, 0]","[0, 0, 0, 0, 0, 0, 0, 0, 0, 0, 0, 0, 0, 0, 0, 0, 0, 0, 0, 0, 0, 0, 0, 0, 0, 0, 0, 0, 0, 0, 0, 0, 0, 0, 0, 0, 0, 0, 0, 0, 0, 0, 0, 0, 0, 0, 0, 0, 1, 2, 4, 5, 7, 9, 11, 13, 13, 13, 13, 13, 13, 12, 11, 11, 10, 10, 10, 10, 10, 10, 10, 10, 10, 10, 10, 10, 10, 10, 10, 10, 10, 9, 7, 5, 3, 2, 1, 1, 1, 0, 0, 0, 0, 0, 0, 0, 0, 0, 0, 0, 0, 0, 1, 2, 3, 3, 4, 4, 4, 6, 7, 8, 9, 9, 9, 9, 9, 9, 9, 9, 9, 9, 9, 9, 9, 9, 9, 9, 9, 8, 8, 8, 8, 8, 8, 8, 8, 8, 8, 8]"
"100","100","753.666666667","753.666666667","black","no","prac","1","legacy","legacy","y.png","w.png","w.png","w.png","2","legacy","0","relative","1","undefined","NA","yellow","NA","undefined","1","undefined","undefined","yellow","4","0","3","0","5","0","NA","5","5","5","5","5","0","5","5","5","5","0","4","NA","NA","5","0","0","0","0","0","0","0","5","11/06/20 17:40:47","Default description","yes","simont_HV.osexp","C:\Users\admin\Desktop\채은\!MouseTracking_final","no","sans","no","18","no","black","no","yes","768","150","None","150","None","legacy","5","5","2","C:/Users/admin/Desktop/채은/!MouseTracking_final/subject-32.csv","legacy","1","1","1","Kafkaesque Koffka","3.2.6","0","yellow","space","NA","None","yellow","start","space","NA","NA","NA","NA","653","26442","NA","250","653","460","2927","NA","NA","NA","NA","2","legacy","1024","2","48000","-16","experiment","32","even","legacy","red","green","blue","yellow","2","4382","NA","NA","50168","1450","NA","48758","49262","49514","48296","NA","1454","50183","51183","49262","49514","NA","NA","NA","NA","48296","NA","NA","NA","NA","NA","NA","30825","48294","[49263.0, 49273.0, 49283.0, 49293.0, 49303.0, 49313.0, 49323.0, 49333.0, 49343.0, 49353.0, 49363.0, 49373.0, 49383.0, 49393.0, 49403.0, 49413.0, 49423.0, 49433.0, 49443.0, 49453.0, 49463.0, 49473.0, 49483.0, 49493.0, 49503.0, 49513.0]","[49514.0, 49524.0, 49534.0, 49544.0, 49554.0, 49564.0, 49574.0, 49584.0, 49594.0, 49604.0, 49614.0, 49624.0, 49634.0, 49644.0, 49654.0, 49664.0, 49674.0, 49684.0, 49694.0, 49704.0, 49714.0, 49724.0, 49734.0, 49744.0, 49754.0, 49764.0, 49774.0, 49784.0, 49794.0, 49804.0, 49814.0, 49824.0, 49834.0, 49844.0, 49854.0, 49864.0, 49874.0, 49884.0, 49894.0, 49904.0, 49914.0, 49924.0, 49934.0, 49944.0, 49954.0, 49964.0, 49974.0, 49984.0, 49994.0, 50004.0, 50014.0, 50024.0, 50034.0, 50044.0, 50054.0, 50064.0, 50074.0, 50084.0, 50094.0, 50104.0, 50114.0, 50124.0, 50134.0, 50144.0, 50154.0, 50164.0, 50167]","example_experiment","6","4522","6","yes","768","1","[0, 0, 0, 0, 0, 0, 0, 0, 0, 0, 0, 0, 0, 0, 0, 0, 0, 0, 0, 0, 0, 0, 0, 0, 0, 0]","[0, 0, 0, 0, 0, 0, 0, 0, 0, 0, 0, 0, 0, 0, 0, 0, 0, 1, 3, 5, 6, 6, 6, 7, 9, 11, 12, 13, 13, 13, 13, 13, 13, 13, 12, 11, 9, 8, 6, 4, 3, 1, 0, -1, -2, -3, -3, -3, -3, -3, -3, -3, -4, -4, -4, -4, -4, -4, -3, -2, -2, -2, -2, -2, -2, -2, -2]","[0, 0, 0, 0, 0, 0, 0, 0, 0, 0, 0, 0, 0, 0, 0, 0, 0, 0, 0, 0, 0, 0, 0, 0, 0, 0]","[0, 0, 0, 0, 0, 0, 0, 0, 0, 0, 0, 0, 0, 0, 0, 0, 4, 12, 25, 40, 58, 77, 97, 118, 137, 156, 173, 187, 198, 210, 218, 225, 230, 235, 240, 243, 246, 249, 251, 253, 256, 258, 260, 262, 264, 266, 268, 271, 276, 281, 286, 292, 298, 303, 310, 316, 323, 328, 333, 337, 339, 340, 340, 340, 340, 340, 340]"
"100","100","757","757","black","no","prac","2","legacy","legacy","w.png","w.png","r.png","w.png","1","legacy","0","relative","1","undefined","NA","red","NA","undefined","1","undefined","undefined","red","1","0","3","0","6","0","NA","6","6","6","6","6","0","6","6","6","6","0","4","NA","NA","6","0","0","0","0","0","0","0","6","11/06/20 17:40:47","Default description","yes","simont_HV.osexp","C:\Users\admin\Desktop\채은\!MouseTracking_final","no","sans","no","18","no","black","no","yes","768","250","None","250","None","legacy","6","6","2","C:/Users/admin/Desktop/채은/!MouseTracking_final/subject-32.csv","legacy","2","1","1","Kafkaesque Koffka","3.2.6","0","red","space","NA","None","red","start","space","NA","NA","NA","NA","777","26442","NA","250","777","529","2927","NA","NA","NA","NA","2","legacy","1024","2","48000","-16","experiment","32","even","legacy","red","green","blue","yellow","1","4382","NA","NA","53351","1450","NA","51817","52321","52573","51286","NA","1454","53363","54363","52321","52573","NA","NA","NA","NA","51286","NA","NA","NA","NA","NA","NA","30825","51284","[52322.0, 52332.0, 52342.0, 52352.0, 52362.0, 52372.0, 52382.0, 52392.0, 52402.0, 52412.0, 52422.0, 52432.0, 52442.0, 52452.0, 52462.0, 52472.0, 52482.0, 52492.0, 52502.0, 52512.0, 52522.0, 52532.0, 52542.0, 52552.0, 52562.0, 52572.0]","[52573.0, 52583.0, 52593.0, 52603.0, 52613.0, 52623.0, 52633.0, 52643.0, 52653.0, 52663.0, 52673.0, 52683.0, 52693.0, 52703.0, 52713.0, 52723.0, 52733.0, 52743.0, 52753.0, 52763.0, 52773.0, 52783.0, 52793.0, 52803.0, 52813.0, 52823.0, 52833.0, 52843.0, 52853.0, 52863.0, 52873.0, 52883.0, 52893.0, 52903.0, 52913.0, 52923.0, 52933.0, 52943.0, 52953.0, 52963.0, 52973.0, 52983.0, 52993.0, 53003.0, 53013.0, 53023.0, 53033.0, 53043.0, 53053.0, 53063.0, 53073.0, 53083.0, 53093.0, 53103.0, 53113.0, 53123.0, 53133.0, 53143.0, 53153.0, 53163.0, 53173.0, 53183.0, 53193.0, 53203.0, 53213.0, 53223.0, 53233.0, 53243.0, 53253.0, 53263.0, 53273.0, 53283.0, 53293.0, 53303.0, 53313.0, 53323.0, 53333.0, 53343.0, 53350]","example_experiment","7","5299","7","yes","768","2","[0, 0, 0, 0, 0, 0, 0, 0, 0, 0, 0, 0, 0, 0, 0, 0, 0, 0, 0, 0, 0, 0, 0, 0, 0, 0]","[0, 0, 0, 0, 0, 0, 0, 0, 0, 0, 0, 0, 0, 0, 0, 0, 0, 0, 0, 0, 0, 0, 0, 0, 0, 0, 2, 7, 12, 19, 25, 30, 32, 33, 33, 33, 31, 24, 14, -1, -19, -41, -64, -86, -107, -127, -142, -154, -161, -165, -168, -169, -169, -170, -170, -172, -176, -179, -182, -185, -189, -192, -194, -197, -202, -209, -221, -238, -255, -271, -285, -295, -301, -305, -306, -306, -306, -306, -306]","[0, 0, 0, 0, 0, 0, 0, 0, 0, 0, 0, 0, 0, 0, 0, 0, 0, 0, 0, 0, 0, 0, 0, 0, 0, 0]","[0, 0, 0, 0, 0, 0, 0, 0, 0, 0, 0, 0, 0, 0, 0, 0, 0, 0, 0, 0, 0, 0, 0, 0, 0, 0, -1, -2, -3, -4, -5, -5, -6, -6, -6, -7, -7, -7, -8, -8, -8, -8, -8, -8, -8, -8, -8, -9, -9, -9, -9, -9, -9, -9, -9, -9, -7, -6, -5, -3, -2, -1, -1, 0, 1, 1, 2, 2, 2, 2, 2, 2, 2, 2, 2, 2, 2, 2, 1]"
"100","100","761.625","761.625","black","no","prac","4","legacy","legacy","w.png","w.png","w.png","y.png","2","legacy","0","relative","1","undefined","NA","yellow","NA","undefined","1","undefined","undefined","yellow","4","0","3","0","7","0","NA","7","7","7","7","7","0","7","7","7","7","0","4","NA","NA","7","0","0","0","0","0","0","0","7","11/06/20 17:40:47","Default description","yes","simont_HV.osexp","C:\Users\admin\Desktop\채은\!MouseTracking_final","no","sans","no","18","no","black","no","yes","768","340","None","340","None","legacy","7","7","1","C:/Users/admin/Desktop/채은/!MouseTracking_final/subject-32.csv","legacy","2","2","1","Kafkaesque Koffka","3.2.6","0","yellow","space","NA","None","yellow","start","space","NA","NA","NA","NA","794","26442","NA","250","794","439","2927","NA","NA","NA","NA","2","legacy","1024","2","48000","-16","experiment","32","even","legacy","red","green","blue","yellow","2","4382","NA","NA","56482","1450","NA","54931","55435","55687","54490","NA","1454","56493","57493","55435","55687","NA","NA","NA","NA","54489","NA","NA","NA","NA","NA","NA","30825","54488","[55436.0, 55446.0, 55456.0, 55466.0, 55476.0, 55486.0, 55496.0, 55506.0, 55516.0, 55526.0, 55536.0, 55546.0, 55556.0, 55566.0, 55576.0, 55586.0, 55596.0, 55606.0, 55616.0, 55626.0, 55636.0, 55646.0, 55656.0, 55666.0, 55676.0, 55686.0]","[55687.0, 55697.0, 55707.0, 55717.0, 55727.0, 55737.0, 55747.0, 55757.0, 55767.0, 55777.0, 55787.0, 55797.0, 55807.0, 55817.0, 55827.0, 55837.0, 55847.0, 55857.0, 55867.0, 55877.0, 55887.0, 55897.0, 55907.0, 55917.0, 55927.0, 55937.0, 55947.0, 55957.0, 55967.0, 55977.0, 55987.0, 55997.0, 56007.0, 56017.0, 56027.0, 56037.0, 56047.0, 56057.0, 56067.0, 56077.0, 56087.0, 56097.0, 56107.0, 56117.0, 56127.0, 56137.0, 56147.0, 56157.0, 56167.0, 56177.0, 56187.0, 56197.0, 56207.0, 56217.0, 56227.0, 56237.0, 56247.0, 56257.0, 56267.0, 56277.0, 56287.0, 56297.0, 56307.0, 56317.0, 56327.0, 56337.0, 56347.0, 56357.0, 56367.0, 56377.0, 56387.0, 56397.0, 56407.0, 56417.0, 56427.0, 56437.0, 56447.0, 56457.0, 56467.0, 56477.0, 56481]","example_experiment","8","6093","8","yes","768","2","[0, 0, 0, 0, 0, 0, 0, 0, 0, 0, 0, 0, 0, 0, 0, 0, 0, 0, 0, 0, 0, 0, 0, 0, 0, 0]","[0, 0, 0, 0, 0, 0, 0, 0, 0, 0, 0, 0, 0, 0, 0, 0, 0, 0, 0, 0, 0, 0, 0, 0, 0, 0, 0, 0, 0, 0, 0, 0, 0, 0, 0, 0, 0, 0, 0, -3, -7, -10, -13, -14, -15, -15, -15, -10, -6, -3, -2, -2, -1, -1, -1, -1, -1, -1, -3, -5, -7, -8, -9, -11, -12, -13, -13, -13, -13, -13, -13, -13, -14, -14, -14, -14, -14, -14, -14, -13, -13]","[0, 0, 0, 0, 0, 0, 0, 0, 0, 0, 0, 0, 0, 0, 0, 0, 0, 0, 0, 0, 0, 0, 0, 0, 0, 0]","[0, 0, 0, 0, 0, 0, 0, 0, 0, 0, 0, 0, 0, 0, 0, 0, 0, 0, 0, 0, 0, 0, 0, 0, 0, 0, 0, 0, 0, 0, 0, 0, 0, 0, 0, 4, 11, 23, 38, 57, 79, 107, 135, 158, 182, 202, 219, 235, 249, 260, 267, 272, 276, 279, 282, 284, 288, 291, 293, 294, 295, 295, 295, 295, 295, 293, 292, 291, 291, 291, 291, 292, 295, 300, 306, 311, 317, 320, 322, 324, 324]"
"100","100","748.222222222","748.222222222","black","no","prac","3","legacy","legacy","w.png","r.png","w.png","w.png","1","legacy","0","relative","1","undefined","NA","red","NA","undefined","1","undefined","undefined","red","1","0","3","0","8","0","NA","8","8","8","8","8","0","8","8","8","8","0","4","NA","NA","8","0","0","0","0","0","0","0","8","11/06/20 17:40:47","Default description","yes","simont_HV.osexp","C:\Users\admin\Desktop\채은\!MouseTracking_final","no","sans","no","18","no","black","no","yes","768","160","None","160","None","legacy","8","8","1","C:/Users/admin/Desktop/채은/!MouseTracking_final/subject-32.csv","legacy","1","2","2","Kafkaesque Koffka","3.2.6","0","red","space","NA","None","red","start","space","NA","NA","NA","NA","641","26442","NA","250","641","405","2927","NA","NA","NA","NA","2","legacy","1024","2","48000","-16","experiment","32","even","legacy","red","green","blue","yellow","1","4382","NA","NA","59412","1450","NA","58016","58519","58770","57609","NA","1454","59443","60443","58518","58770","NA","NA","NA","NA","57609","NA","NA","NA","NA","NA","NA","30825","57608","[58519.0, 58529.0, 58539.0, 58549.0, 58559.0, 58569.0, 58579.0, 58589.0, 58599.0, 58609.0, 58619.0, 58629.0, 58639.0, 58649.0, 58659.0, 58669.0, 58679.0, 58689.0, 58699.0, 58709.0, 58719.0, 58729.0, 58739.0, 58749.0, 58759.0, 58769.0]","[58770.0, 58780.0, 58790.0, 58800.0, 58810.0, 58820.0, 58830.0, 58840.0, 58850.0, 58860.0, 58870.0, 58880.0, 58890.0, 58900.0, 58910.0, 58920.0, 58930.0, 58940.0, 58950.0, 58960.0, 58970.0, 58980.0, 58990.0, 59000.0, 59010.0, 59020.0, 59030.0, 59040.0, 59050.0, 59060.0, 59070.0, 59080.0, 59090.0, 59100.0, 59110.0, 59120.0, 59130.0, 59140.0, 59150.0, 59160.0, 59170.0, 59180.0, 59190.0, 59200.0, 59210.0, 59220.0, 59230.0, 59240.0, 59250.0, 59260.0, 59270.0, 59280.0, 59290.0, 59300.0, 59310.0, 59320.0, 59330.0, 59340.0, 59350.0, 59360.0, 59370.0, 59380.0, 59390.0, 59400.0, 59410.0, 59411]","example_experiment","9","6734","9","yes","768","3","[0, 0, 0, 0, 0, 0, 0, 0, 0, 0, 0, 0, 0, 0, 0, 0, 0, 0, 0, 0, 0, 0, 0, 0, 0, 0]","[0, 0, 0, 0, 0, 0, 0, 0, 0, 0, 0, 0, 0, 0, 0, 0, 0, -2, -9, -18, -31, -49, -69, -90, -114, -135, -153, -169, -182, -193, -201, -208, -214, -221, -227, -233, -239, -244, -248, -251, -253, -255, -255, -256, -256, -257, -257, -257, -257, -257, -257, -257, -259, -262, -269, -277, -287, -296, -304, -313, -320, -325, -329, -331, -331, -331]","[0, 0, 0, 0, 0, 0, 0, 0, 0, 0, 0, 0, 0, 0, 0, 0, 0, 0, 0, 0, 0, 0, 0, 0, 0, 0]","[0, 0, 0, 0, 0, 0, 0, 0, 0, 0, 0, 0, 0, 0, 0, 0, 0, 0, 0, 0, 0, 0, 0, 0, -1, -1, -1, -1, -2, -2, -3, -4, -4, -4, -4, -4, -4, -4, -3, -3, -3, -3, -3, -3, -3, -3, -3, -3, -3, -3, -3, -3, -3, -3, -3, -3, -3, -3, -3, -3, -3, -3, -3, -3, -3, -3]"
"100","100","731.3","731.3","black","no","prac","1","legacy","legacy","y.png","w.png","w.png","w.png","2","legacy","0","relative","1","undefined","NA","yellow","NA","undefined","1","undefined","undefined","yellow","4","0","3","0","9","0","NA","9","9","9","9","9","0","9","9","9","9","0","4","NA","NA","9","0","0","0","0","0","0","0","9","11/06/20 17:40:47","Default description","yes","simont_HV.osexp","C:\Users\admin\Desktop\채은\!MouseTracking_final","no","sans","no","18","no","black","no","yes","768","160","None","160","None","legacy","9","9","2","C:/Users/admin/Desktop/채은/!MouseTracking_final/subject-32.csv","legacy","1","1","2","Kafkaesque Koffka","3.2.6","0","yellow","space","NA","None","yellow","start","space","NA","NA","NA","NA","579","26442","NA","250","579","348","2927","NA","NA","NA","NA","2","legacy","1024","2","48000","-16","experiment","32","even","legacy","red","green","blue","yellow","2","4382","NA","NA","62237","1450","NA","60902","61405","61657","60552","NA","1454","62252","63252","61405","61657","NA","NA","NA","NA","60552","NA","NA","NA","NA","NA","NA","30825","60551","[61406.0, 61416.0, 61426.0, 61436.0, 61446.0, 61456.0, 61466.0, 61476.0, 61486.0, 61496.0, 61506.0, 61516.0, 61526.0, 61536.0, 61546.0, 61556.0, 61566.0, 61576.0, 61586.0, 61596.0, 61606.0, 61616.0, 61626.0, 61636.0, 61646.0, 61656.0]","[61657.0, 61667.0, 61677.0, 61687.0, 61697.0, 61707.0, 61717.0, 61727.0, 61737.0, 61747.0, 61757.0, 61767.0, 61777.0, 61787.0, 61797.0, 61807.0, 61817.0, 61827.0, 61837.0, 61847.0, 61857.0, 61867.0, 61877.0, 61887.0, 61897.0, 61907.0, 61917.0, 61927.0, 61937.0, 61947.0, 61957.0, 61967.0, 61977.0, 61987.0, 61997.0, 62007.0, 62017.0, 62027.0, 62037.0, 62047.0, 62057.0, 62067.0, 62077.0, 62087.0, 62097.0, 62107.0, 62117.0, 62127.0, 62137.0, 62147.0, 62157.0, 62167.0, 62177.0, 62187.0, 62197.0, 62207.0, 62217.0, 62227.0, 62236]","example_experiment","10","7313","10","yes","768","3","[0, 0, 0, 0, 0, 0, 0, 0, 0, 0, 0, 0, 0, 0, 0, 0, 0, 0, 0, 0, 0, 0, 0, 0, 0, 0]","[0, 0, 0, 0, 0, 0, 0, 0, 0, 0, 0, 0, 0, 0, 0, 0, 0, 0, 0, 0, 0, 0, 0, 0, 0, 1, 1, 2, 3, 4, 5, 5, 7, 8, 10, 10, 11, 11, 12, 12, 12, 12, 13, 14, 14, 14, 14, 14, 13, 13, 12, 11, 9, 8, 7, 7, 7, 7, 7]","[0, 0, 0, 0, 0, 0, 0, 0, 0, 0, 0, 0, 0, 0, 0, 0, 0, 0, 0, 0, 0, 0, 0, 0, 0, 0]","[0, 0, 0, 0, 0, 0, 0, 0, 0, 0, 0, 0, 0, 0, 0, 0, 0, 2, 11, 24, 42, 64, 88, 116, 141, 163, 182, 199, 214, 226, 237, 246, 253, 261, 267, 271, 275, 277, 278, 279, 280, 282, 285, 289, 292, 294, 296, 298, 300, 302, 305, 308, 312, 315, 317, 317, 317, 317, 317]"
"100","100","718.727272727","718.727272727","black","no","prac","1","legacy","legacy","w.png","w.png","g.png","w.png","2","legacy","0","relative","1","undefined","NA","green","NA","undefined","1","undefined","undefined","green","2","0","3","0","10","0","NA","10","10","10","10","10","0","10","10","10","10","0","4","NA","NA","10","0","0","0","0","0","0","0","10","11/06/20 17:40:47","Default description","yes","simont_HV.osexp","C:\Users\admin\Desktop\채은\!MouseTracking_final","no","sans","no","18","no","black","no","yes","768","200","None","200","None","legacy","10","10","2","C:/Users/admin/Desktop/채은/!MouseTracking_final/subject-32.csv","legacy","1","1","1","Kafkaesque Koffka","3.2.6","0","green","space","NA","None","green","start","space","NA","NA","NA","NA","593","26442","NA","250","593","290","2927","NA","NA","NA","NA","2","legacy","1024","2","48000","-16","experiment","32","even","legacy","red","green","blue","yellow","1","4382","NA","NA","65005","1450","NA","63656","64160","64411","63363","NA","1454","65033","66033","64160","64411","NA","NA","NA","NA","63363","NA","NA","NA","NA","NA","NA","30825","63362","[64160.0, 64170.0, 64180.0, 64190.0, 64200.0, 64210.0, 64220.0, 64230.0, 64240.0, 64250.0, 64260.0, 64270.0, 64280.0, 64290.0, 64300.0, 64310.0, 64320.0, 64330.0, 64340.0, 64350.0, 64360.0, 64370.0, 64380.0, 64390.0, 64400.0, 64410.0]","[64411.0, 64421.0, 64431.0, 64441.0, 64451.0, 64461.0, 64471.0, 64481.0, 64491.0, 64501.0, 64511.0, 64521.0, 64531.0, 64541.0, 64551.0, 64561.0, 64571.0, 64581.0, 64591.0, 64601.0, 64611.0, 64621.0, 64631.0, 64641.0, 64651.0, 64661.0, 64671.0, 64681.0, 64691.0, 64701.0, 64711.0, 64721.0, 64731.0, 64741.0, 64751.0, 64761.0, 64771.0, 64781.0, 64791.0, 64801.0, 64811.0, 64821.0, 64831.0, 64841.0, 64851.0, 64861.0, 64871.0, 64881.0, 64891.0, 64901.0, 64911.0, 64921.0, 64931.0, 64941.0, 64951.0, 64961.0, 64971.0, 64981.0, 64991.0, 65001.0, 65004]","example_experiment","11","7906","11","yes","768","1","[0, 0, 0, 0, 0, 0, 0, 0, 0, 0, 0, 0, 0, 0, 0, 0, 0, 0, 0, 0, 0, 0, 0, 0, 0, 0]","[0, 0, 0, 0, 0, 0, 0, 0, 0, 0, 0, 0, 0, 0, 0, 0, 0, 0, 0, 0, 0, 6, 16, 28, 44, 61, 81, 103, 125, 144, 162, 177, 189, 201, 208, 214, 220, 225, 230, 236, 242, 246, 252, 257, 263, 269, 275, 280, 284, 287, 287, 287, 287, 287, 287, 288, 290, 291, 291, 292, 292]","[0, 0, 0, 0, 0, 0, 0, 0, 0, 0, 0, 0, 0, 0, 0, 0, 0, 0, 0, 0, 0, 0, 0, 0, 0, 0]","[0, 0, 0, 0, 0, 0, 0, 0, 0, 0, 0, 0, 0, 0, 0, 0, 0, 0, 0, 0, 0, 0, 0, 0, 0, 0, 0, 0, 1, 2, 2, 2, 2, 2, 2, 2, 2, 2, 2, 2, 2, 2, 2, 2, 2, 2, 1, 1, 1, 1, 1, 1, 1, 1, 1, 1, 0, -1, -1, -1, -1]"
"100","100","719.333333333","719.333333333","black","no","prac","1","legacy","legacy","w.png","w.png","w.png","b.png","1","legacy","0","relative","1","undefined","NA","blue","NA","undefined","1","undefined","undefined","blue","3","0","3","0","11","0","NA","11","11","11","11","11","0","11","11","11","11","0","4","NA","NA","11","0","0","0","0","0","0","0","11","11/06/20 17:40:47","Default description","yes","simont_HV.osexp","C:\Users\admin\Desktop\채은\!MouseTracking_final","no","sans","no","18","no","black","no","yes","768","150","None","150","None","legacy","11","11","1","C:/Users/admin/Desktop/채은/!MouseTracking_final/subject-32.csv","legacy","1","1","1","Kafkaesque Koffka","3.2.6","0","blue","space","NA","None","blue","start","space","NA","NA","NA","NA","726","26442","NA","250","726","301","2927","NA","NA","NA","NA","2","legacy","1024","2","48000","-16","experiment","32","even","legacy","red","green","blue","yellow","2","4382","NA","NA","67937","1450","NA","66454","66958","67210","66151","NA","1454","67952","68952","66958","67210","NA","NA","NA","NA","66151","NA","NA","NA","NA","NA","NA","30825","66150","[66959.0, 66969.0, 66979.0, 66989.0, 66999.0, 67009.0, 67019.0, 67029.0, 67039.0, 67049.0, 67059.0, 67069.0, 67079.0, 67089.0, 67099.0, 67109.0, 67119.0, 67129.0, 67139.0, 67149.0, 67159.0, 67169.0, 67179.0, 67189.0, 67199.0, 67209.0]","[67210.0, 67220.0, 67230.0, 67240.0, 67250.0, 67260.0, 67270.0, 67280.0, 67290.0, 67300.0, 67310.0, 67320.0, 67330.0, 67340.0, 67350.0, 67360.0, 67370.0, 67380.0, 67390.0, 67400.0, 67410.0, 67420.0, 67430.0, 67440.0, 67450.0, 67460.0, 67470.0, 67480.0, 67490.0, 67500.0, 67510.0, 67520.0, 67530.0, 67540.0, 67550.0, 67560.0, 67570.0, 67580.0, 67590.0, 67600.0, 67610.0, 67620.0, 67630.0, 67640.0, 67650.0, 67660.0, 67670.0, 67680.0, 67686, 67696.0, 67706.0, 67716.0, 67726.0, 67736.0, 67746.0, 67756.0, 67766.0, 67776.0, 67786.0, 67796.0, 67806.0, 67816.0, 67826.0, 67836.0, 67846.0, 67856.0, 67866.0, 67876.0, 67886.0, 67896.0, 67906.0, 67916.0, 67926.0, 67936.0, 67936]","example_experiment","12","8632","12","yes","768","1","[0, 0, 0, 0, 0, 0, 0, 0, 0, 0, 0, 0, 0, 0, 0, 0, 0, 0, 0, 0, 0, 0, 0, 0, 0, 0]","[0, 0, 0, 0, 0, 0, 0, 0, 0, 0, 0, 0, 0, 0, 0, 0, 0, 1, 2, 3, 3, 3, 3, 3, 3, 3, 3, 3, 3, 3, 3, 1, -1, -2, -4, -4, -4, -4, -4, -4, -4, -4, -4, -4, -4, -4, -4, -4, -4, -4, -4, -4, -4, -4, -4, -4, -4, -4, -4, -4, -4, -4, -4, -4, -4, -4, -4, -4, -4, -4, -4, -4, -4, -4, -4]","[0, 0, 0, 0, 0, 0, 0, 0, 0, 0, 0, 0, 0, 0, 0, 0, 0, 0, 0, 0, 0, 0, 0, 0, 0, 0]","[0, 0, 0, 0, 0, 0, 0, 0, 0, 0, 0, 0, 0, 0, 0, 0, -5, -17, -33, -52, -71, -93, -114, -135, -155, -174, -193, -207, -219, -231, -239, -248, -254, -260, -263, -265, -266, -267, -267, -268, -270, -272, -274, -275, -276, -276, -276, -276, -276, -276, -276, -276, -276, -276, -276, -276, -276, -276, -276, -276, -276, -276, -276, -276, -276, -279, -284, -288, -292, -296, -301, -305, -308, -309, -309]"
"100","100","703.769230769","703.769230769","black","no","prac","1","legacy","legacy","w.png","r.png","w.png","w.png","1","legacy","0","relative","1","undefined","NA","red","NA","undefined","1","undefined","undefined","red","1","0","3","0","12","0","NA","12","12","12","12","12","0","12","12","12","12","0","4","NA","NA","12","0","0","0","0","0","0","0","12","11/06/20 17:40:47","Default description","yes","simont_HV.osexp","C:\Users\admin\Desktop\채은\!MouseTracking_final","no","sans","no","18","no","black","no","yes","768","80","None","80","None","legacy","12","12","1","C:/Users/admin/Desktop/채은/!MouseTracking_final/subject-32.csv","legacy","1","1","1","Kafkaesque Koffka","3.2.6","0","red","space","NA","None","red","start","space","NA","NA","NA","NA","517","26442","NA","250","517","345","2927","NA","NA","NA","NA","2","legacy","1024","2","48000","-16","experiment","32","even","legacy","red","green","blue","yellow","1","4382","NA","NA","70694","1450","NA","69421","69924","70176","69073","NA","1454","70703","71703","69924","70176","NA","NA","NA","NA","69073","NA","NA","NA","NA","NA","NA","30825","69072","[69925.0, 69935.0, 69945.0, 69955.0, 69965.0, 69975.0, 69985.0, 69995.0, 70005.0, 70015.0, 70025.0, 70035.0, 70045.0, 70055.0, 70065.0, 70075.0, 70085.0, 70095.0, 70105.0, 70115.0, 70125.0, 70135.0, 70145.0, 70155.0, 70165.0, 70175.0]","[70176.0, 70186.0, 70196.0, 70206.0, 70216.0, 70226.0, 70236.0, 70246.0, 70256.0, 70266.0, 70276.0, 70286.0, 70296.0, 70306.0, 70316.0, 70326.0, 70336.0, 70346.0, 70356.0, 70366.0, 70376.0, 70386.0, 70396.0, 70406.0, 70416.0, 70426.0, 70436.0, 70446.0, 70456.0, 70466.0, 70476.0, 70486.0, 70496.0, 70506.0, 70516.0, 70526.0, 70536.0, 70546.0, 70556.0, 70566.0, 70576.0, 70586.0, 70596.0, 70606.0, 70616.0, 70626.0, 70636.0, 70646.0, 70656.0, 70666.0, 70676.0, 70686.0, 70693]","example_experiment","13","9149","13","yes","768","1","[0, 0, 0, 0, 0, 0, 0, 0, 0, 0, 0, 0, 0, 0, 0, 0, 0, 0, 0, 0, 0, 0, 0, 0, 0, 0]","[0, 0, 0, 0, 0, 0, 0, 0, 0, -2, -6, -12, -23, -34, -47, -62, -78, -96, -114, -131, -150, -167, -183, -197, -210, -221, -228, -235, -240, -244, -249, -253, -258, -262, -266, -270, -273, -276, -279, -281, -285, -288, -292, -295, -299, -302, -305, -307, -308, -308, -308, -308, -308]","[0, 0, 0, 0, 0, 0, 0, 0, 0, 0, 0, 0, 0, 0, 0, 0, 0, 0, 0, 0, 0, 0, 0, 0, 0, 0]","[0, 0, 0, 0, 0, 0, 0, 0, 0, 0, -1, -1, -2, -2, -2, -3, -3, -3, -3, -3, -3, -3, -3, -3, -3, -3, -2, -2, -1, -1, -1, 0, 0, 0, 1, 1, 1, 1, 1, 1, 1, 1, 1, 1, 0, 0, 0, -1, -1, -1, -1, -1, -1]"
"100","100","712.857142857","712.857142857","black","no","prac","2","legacy","legacy","w.png","w.png","w.png","y.png","2","legacy","0","relative","1","undefined","NA","yellow","NA","undefined","1","undefined","undefined","yellow","4","0","3","0","13","0","NA","13","13","13","13","13","0","13","13","13","13","0","4","NA","NA","13","0","0","0","0","0","0","0","13","11/06/20 17:40:47","Default description","yes","simont_HV.osexp","C:\Users\admin\Desktop\채은\!MouseTracking_final","no","sans","no","18","no","black","no","yes","768","170","None","170","None","legacy","13","13","1","C:/Users/admin/Desktop/채은/!MouseTracking_final/subject-32.csv","legacy","2","1","1","Kafkaesque Koffka","3.2.6","0","yellow","space","NA","None","yellow","start","space","NA","NA","NA","NA","831","26442","NA","250","831","282","2927","NA","NA","NA","NA","2","legacy","1024","2","48000","-16","experiment","32","even","legacy","red","green","blue","yellow","2","4382","NA","NA","73704","1450","NA","72116","72620","72872","71831","NA","1454","73713","74713","72620","72872","NA","NA","NA","NA","71831","NA","NA","NA","NA","NA","NA","30825","71830","[72621.0, 72631.0, 72641.0, 72651.0, 72661.0, 72671.0, 72681.0, 72691.0, 72701.0, 72711.0, 72721.0, 72731.0, 72741.0, 72751.0, 72761.0, 72771.0, 72781.0, 72791.0, 72801.0, 72811.0, 72821.0, 72831.0, 72841.0, 72851.0, 72861.0, 72871.0]","[72872.0, 72882.0, 72892.0, 72902.0, 72912.0, 72922.0, 72932.0, 72942.0, 72952.0, 72962.0, 72972.0, 72982.0, 72992.0, 73002.0, 73012.0, 73022.0, 73032.0, 73042.0, 73052.0, 73062.0, 73072.0, 73082.0, 73092.0, 73102.0, 73112.0, 73122.0, 73132.0, 73142.0, 73152.0, 73162.0, 73172.0, 73182.0, 73192.0, 73202.0, 73212.0, 73222.0, 73232.0, 73242.0, 73252.0, 73262.0, 73272.0, 73282.0, 73292.0, 73302.0, 73312.0, 73322.0, 73332.0, 73342.0, 73352.0, 73362.0, 73372.0, 73382.0, 73392.0, 73402.0, 73412.0, 73422.0, 73432.0, 73442.0, 73452.0, 73462.0, 73472.0, 73482.0, 73492.0, 73502.0, 73512.0, 73522.0, 73532.0, 73542.0, 73552.0, 73562.0, 73572.0, 73582.0, 73592.0, 73602.0, 73612.0, 73622.0, 73632.0, 73642.0, 73652.0, 73662.0, 73672.0, 73682.0, 73692.0, 73702.0, 73703]","example_experiment","14","9980","14","yes","768","2","[0, 0, 0, 0, 0, 0, 0, 0, 0, 0, 0, 0, 0, 0, 0, 0, 0, 0, 0, 0, 0, 0, 0, 0, 0, 0]","[0, 0, 0, 0, 0, 0, 0, 0, 0, 0, 0, 0, 0, 0, 0, 0, 0, 0, 2, 4, 4, 4, 4, 4, 4, 4, 5, 5, 6, 7, 7, 8, 8, 8, 8, 10, 13, 17, 19, 20, 21, 21, 21, 22, 22, 22, 22, 22, 22, 22, 20, 17, 15, 14, 12, 11, 10, 10, 10, 10, 10, 10, 10, 10, 10, 10, 10, 10, 10, 9, 9, 7, 7, 7, 6, 6, 6, 5, 4, 4, 4, 4, 4, 4, 4]","[0, 0, 0, 0, 0, 0, 0, 0, 0, 0, 0, 0, 0, 0, 0, 0, 0, 0, 0, 0, 0, 0, 0, 0, 0, 0]","[0, 0, 0, 0, 0, 0, 0, 0, 0, 0, 0, 0, 0, 0, 0, 0, 0, 0, 0, 0, 0, 0, 0, 0, 0, 0, 0, -1, -4, -7, -10, -11, -11, -11, -11, -11, -4, 7, 21, 40, 58, 79, 101, 122, 145, 162, 177, 189, 198, 207, 216, 224, 230, 232, 234, 235, 236, 237, 238, 239, 241, 242, 243, 245, 249, 254, 260, 268, 276, 284, 290, 296, 301, 305, 309, 313, 315, 317, 317, 317, 317, 317, 317, 317, 317]"
"100","100","706.533333333","706.533333333","black","no","prac","3","legacy","legacy","w.png","r.png","w.png","w.png","1","legacy","0","relative","1","undefined","NA","red","NA","undefined","1","undefined","undefined","red","1","0","3","0","14","0","NA","14","14","14","14","14","0","14","14","14","14","0","4","NA","NA","14","0","0","0","0","0","0","0","14","11/06/20 17:40:47","Default description","yes","simont_HV.osexp","C:\Users\admin\Desktop\채은\!MouseTracking_final","no","sans","no","18","no","black","no","yes","768","140","None","140","120","legacy","14","14","1","C:/Users/admin/Desktop/채은/!MouseTracking_final/subject-32.csv","legacy","1","2","1","Kafkaesque Koffka","3.2.6","0","red","space","NA","None","red","start","space","NA","NA","NA","NA","618","26442","NA","250","618","259","2927","NA","NA","NA","NA","2","legacy","1024","2","48000","-16","experiment","32","even","legacy","red","green","blue","yellow","1","4382","NA","NA","76455","1450","NA","75080","75584","75836","74818","NA","1454","76462","77462","75584","75836","NA","NA","NA","NA","74818","NA","NA","NA","NA","NA","NA","30825","74817","[75585.0, 75595.0, 75605.0, 75615.0, 75625.0, 75635.0, 75645.0, 75655.0, 75665.0, 75675.0, 75685.0, 75695.0, 75705.0, 75715.0, 75725.0, 75735.0, 75745.0, 75755.0, 75765.0, 75775.0, 75785.0, 75795.0, 75805.0, 75815.0, 75825.0, 75835.0]","[75836.0, 75846.0, 75856.0, 75866.0, 75876.0, 75886.0, 75896.0, 75906.0, 75916.0, 75926.0, 75936.0, 75946.0, 75956.0, 75966.0, 75976.0, 75986.0, 75996.0, 76006.0, 76016.0, 76026.0, 76036.0, 76046.0, 76056.0, 76066.0, 76076.0, 76086.0, 76096.0, 76106.0, 76116.0, 76126.0, 76136.0, 76146.0, 76156.0, 76166.0, 76176.0, 76186.0, 76196.0, 76206.0, 76216.0, 76226.0, 76236.0, 76246.0, 76256.0, 76266.0, 76276.0, 76286.0, 76296.0, 76306.0, 76316.0, 76326.0, 76336.0, 76346.0, 76356.0, 76366.0, 76376.0, 76386.0, 76396.0, 76406.0, 76416.0, 76426.0, 76436.0, 76446.0, 76454]","example_experiment","15","10598","15","yes","768","1","[0, 0, 0, 0, 0, 0, 0, 0, 0, 0, 0, 0, 0, 0, 0, 0, 0, 0, 0, 0, 0, 0, 0, 0, 0, 0]","[0, 0, 0, 0, 0, 0, 0, 0, 0, 0, 0, 0, 0, 0, 0, -2, -9, -20, -32, -45, -61, -78, -96, -114, -134, -154, -171, -187, -198, -207, -215, -221, -226, -230, -232, -234, -235, -236, -238, -240, -243, -247, -251, -257, -263, -270, -275, -281, -285, -289, -293, -298, -303, -308, -314, -319, -323, -325, -326, -326, -326, -326, -326]","[0, 0, 0, 0, 0, 0, 0, 0, 0, 0, 0, 0, 0, 0, 0, 0, 0, 0, 0, 0, 0, 0, 0, 0, 0, 0]","[0, 0, 0, 0, 0, 0, 0, 0, 0, 0, 0, 0, 0, 0, 0, 0, 0, 3, 5, 7, 8, 9, 9, 9, 9, 8, 8, 6, 6, 5, 4, 4, 4, 4, 4, 4, 4, 4, 4, 4, 5, 5, 5, 6, 6, 6, 6, 6, 6, 6, 6, 6, 6, 5, 5, 4, 4, 4, 4, 4, 4, 4, 4]"
"100","100","722.375","722.375","black","no","prac","2","legacy","legacy","b.png","w.png","w.png","w.png","1","legacy","0","relative","1","undefined","NA","blue","NA","undefined","1","undefined","undefined","blue","3","0","3","0","15","0","NA","15","15","15","15","15","0","15","15","15","15","0","4","NA","NA","15","0","0","0","0","0","0","0","15","11/06/20 17:40:47","Default description","yes","simont_HV.osexp","C:\Users\admin\Desktop\채은\!MouseTracking_final","no","sans","no","18","no","black","no","yes","768","120","None","120","None","legacy","15","15","2","C:/Users/admin/Desktop/채은/!MouseTracking_final/subject-32.csv","legacy","2","1","2","Kafkaesque Koffka","3.2.6","0","blue","space","NA","None","blue","start","space","NA","NA","NA","NA","960","26442","NA","250","960","345","2927","NA","NA","NA","NA","2","legacy","1024","2","48000","-16","experiment","32","even","legacy","red","green","blue","yellow","2","4382","NA","NA","79630","1450","NA","77913","78417","78669","77566","NA","1454","79643","80643","78417","78669","NA","NA","NA","NA","77566","NA","NA","NA","NA","NA","NA","30825","77564","[78418.0, 78428.0, 78438.0, 78448.0, 78458.0, 78468.0, 78478.0, 78488.0, 78498.0, 78508.0, 78518.0, 78528.0, 78538.0, 78548.0, 78558.0, 78568.0, 78578.0, 78588.0, 78598.0, 78608.0, 78618.0, 78628.0, 78638.0, 78648.0, 78658.0, 78668.0]","[78669.0, 78679.0, 78689.0, 78699.0, 78709.0, 78719.0, 78729.0, 78739.0, 78749.0, 78759.0, 78769.0, 78779.0, 78789.0, 78799.0, 78809.0, 78819.0, 78829.0, 78839.0, 78849.0, 78859.0, 78869.0, 78879.0, 78889.0, 78899.0, 78909.0, 78919.0, 78929.0, 78939.0, 78949.0, 78959.0, 78969.0, 78979.0, 78989.0, 78999.0, 79009.0, 79019.0, 79029.0, 79039.0, 79049.0, 79059.0, 79069.0, 79079.0, 79089.0, 79099.0, 79109.0, 79119.0, 79129.0, 79139.0, 79149.0, 79159.0, 79169.0, 79179.0, 79189.0, 79199.0, 79209.0, 79219.0, 79229.0, 79239.0, 79249.0, 79259.0, 79269.0, 79279.0, 79289.0, 79299.0, 79309.0, 79319.0, 79329.0, 79339.0, 79349.0, 79359.0, 79369.0, 79379.0, 79389.0, 79399.0, 79409.0, 79419.0, 79429.0, 79439.0, 79449.0, 79459.0, 79469.0, 79479.0, 79489.0, 79499.0, 79509.0, 79519.0, 79529.0, 79539.0, 79549.0, 79559.0, 79569.0, 79579.0, 79589.0, 79599.0, 79609.0, 79619.0, 79629.0, 79629]","example_experiment","16","11558","16","yes","768","4","[0, 0, 0, 0, 0, 0, 0, 0, 0, 0, 0, 0, 0, 0, 0, 0, 0, 0, 0, 0, 0, 0, 0, 0, 0, 0]","[0, 0, 0, 0, 0, 0, 0, 0, 0, 0, 0, 0, 0, 0, 0, 0, 1, 5, 9, 14, 18, 21, 24, 26, 28, 29, 31, 33, 36, 37, 39, 40, 40, 40, 40, 43, 47, 57, 68, 82, 99, 112, 125, 137, 148, 156, 162, 167, 169, 170, 170, 168, 165, 162, 157, 150, 143, 131, 116, 101, 85, 69, 56, 44, 36, 30, 25, 22, 18, 16, 14, 13, 13, 14, 16, 19, 22, 24, 26, 27, 29, 29, 30, 31, 31, 31, 31, 31, 28, 23, 18, 13, 8, 3, 0, -1, -2, -2]","[0, 0, 0, 0, 0, 0, 0, 0, 0, 0, 0, 0, 0, 0, 0, 0, 0, 0, 0, 0, 0, 0, 0, 0, 0, 0]","[0, 0, 0, 0, 0, 0, 0, 0, 0, 0, 0, 0, 0, 3, 9, 18, 29, 42, 56, 76, 96, 119, 144, 167, 186, 204, 217, 228, 234, 237, 239, 240, 240, 240, 240, 240, 237, 231, 222, 206, 182, 155, 124, 88, 54, 27, 8, -5, -14, -21, -27, -33, -40, -45, -50, -56, -62, -69, -76, -84, -91, -99, -107, -114, -121, -127, -134, -142, -152, -162, -172, -182, -190, -199, -206, -214, -222, -229, -235, -241, -247, -253, -259, -265, -270, -275, -279, -283, -287, -291, -295, -299, -302, -305, -307, -308, -308, -308]"
"100","100","704.941176471","704.941176471","black","no","prac","4","legacy","legacy","w.png","w.png","r.png","w.png","1","legacy","0","relative","1","undefined","NA","red","NA","undefined","1","undefined","undefined","red","1","0","3","0","16","0","NA","16","16","16","16","16","0","16","16","16","16","0","4","NA","NA","16","0","0","0","0","0","0","0","16","11/06/20 17:40:47","Default description","yes","simont_HV.osexp","C:\Users\admin\Desktop\채은\!MouseTracking_final","no","sans","no","18","no","black","no","yes","768","100","None","100","None","legacy","16","16","2","C:/Users/admin/Desktop/채은/!MouseTracking_final/subject-32.csv","legacy","2","2","1","Kafkaesque Koffka","3.2.6","0","red","space","NA","None","red","start","space","NA","NA","NA","NA","426","26442","NA","250","426","274","2927","NA","NA","NA","NA","2","legacy","1024","2","48000","-16","experiment","32","even","legacy","red","green","blue","yellow","1","4382","NA","NA","82222","1450","NA","81039","81543","81795","80763","NA","1454","82243","83243","81543","81795","NA","NA","NA","NA","80763","NA","NA","NA","NA","NA","NA","30825","80762","[81544.0, 81554.0, 81564.0, 81574.0, 81584.0, 81594.0, 81604.0, 81614.0, 81624.0, 81634.0, 81644.0, 81654.0, 81664.0, 81674.0, 81684.0, 81694.0, 81704.0, 81714.0, 81724.0, 81734.0, 81744.0, 81754.0, 81764.0, 81774.0, 81784.0, 81794.0]","[81795.0, 81805.0, 81815.0, 81825.0, 81835.0, 81845.0, 81855.0, 81865.0, 81875.0, 81885.0, 81895.0, 81905.0, 81915.0, 81925.0, 81935.0, 81945.0, 81955.0, 81965.0, 81975.0, 81985.0, 81995.0, 82005.0, 82015.0, 82025.0, 82035.0, 82045.0, 82055.0, 82065.0, 82075.0, 82085.0, 82095.0, 82105.0, 82115.0, 82125.0, 82135.0, 82145.0, 82155.0, 82165.0, 82175.0, 82185.0, 82195.0, 82205.0, 82215.0, 82221]","example_experiment","17","11984","17","yes","768","2","[0, 0, 0, 0, 0, 0, 0, 0, 0, 0, 0, 0, 0, 0, 0, 0, 0, 0, 0, 0, 0, 0, 0, 0, 0, 0]","[0, 0, 0, 0, 0, 0, 0, 0, 0, 0, 0, -4, -12, -26, -42, -65, -88, -118, -144, -172, -192, -212, -228, -238, -248, -256, -264, -270, -275, -280, -284, -288, -290, -291, -291, -291, -291, -291, -291, -291, -291, -291, -291, -291]","[0, 0, 0, 0, 0, 0, 0, 0, 0, 0, 0, 0, 0, 0, 0, 0, 0, 0, 0, 0, 0, 0, 0, 0, 0, 0]","[0, 0, 0, 0, 0, 0, 0, 0, 0, 0, 0, 0, 0, 0, 0, 0, 0, -1, -2, -2, -2, -2, -2, 0, 0, 1, 1, 2, 2, 3, 3, 3, 4, 4, 4, 4, 4, 4, 4, 4, 4, 4, 4, 4]"
"100","100","716.777777778","716.777777778","black","no","prac","4","legacy","legacy","b.png","w.png","w.png","w.png","1","legacy","0","relative","1","undefined","NA","blue","NA","undefined","1","undefined","undefined","blue","3","0","3","0","17","0","NA","17","17","17","17","17","0","17","17","17","17","0","4","NA","NA","17","0","0","0","0","0","0","0","17","11/06/20 17:40:47","Default description","yes","simont_HV.osexp","C:\Users\admin\Desktop\채은\!MouseTracking_final","no","sans","no","18","no","black","no","yes","768","160","None","160","None","legacy","17","17","2","C:/Users/admin/Desktop/채은/!MouseTracking_final/subject-32.csv","legacy","2","2","2","Kafkaesque Koffka","3.2.6","0","blue","space","NA","None","blue","start","space","NA","NA","NA","NA","918","26442","NA","250","918","221","2927","NA","NA","NA","NA","2","legacy","1024","2","48000","-16","experiment","32","even","legacy","red","green","blue","yellow","2","4382","NA","NA","85273","1450","NA","83598","84102","84354","83375","NA","1454","85293","86293","84102","84354","NA","NA","NA","NA","83375","NA","NA","NA","NA","NA","NA","30825","83374","[84103.0, 84113.0, 84123.0, 84133.0, 84143.0, 84153.0, 84163.0, 84173.0, 84183.0, 84193.0, 84203.0, 84213.0, 84223.0, 84233.0, 84243.0, 84253.0, 84263.0, 84273.0, 84283.0, 84293.0, 84303.0, 84313.0, 84323.0, 84333.0, 84343.0, 84353.0]","[84354.0, 84364.0, 84374.0, 84384.0, 84394.0, 84404.0, 84414.0, 84424.0, 84434.0, 84444.0, 84454.0, 84464.0, 84474.0, 84484.0, 84494.0, 84504.0, 84514.0, 84524.0, 84534.0, 84544.0, 84554.0, 84564.0, 84574.0, 84584.0, 84594.0, 84604.0, 84614.0, 84624.0, 84634.0, 84644.0, 84654.0, 84664.0, 84674.0, 84684.0, 84694.0, 84704.0, 84714.0, 84724.0, 84734.0, 84744.0, 84754.0, 84764.0, 84774.0, 84784.0, 84794.0, 84804.0, 84814.0, 84824.0, 84834.0, 84844.0, 84854.0, 84864.0, 84874.0, 84884.0, 84894.0, 84904.0, 84914.0, 84924.0, 84934.0, 84944.0, 84954.0, 84964.0, 84974.0, 84984.0, 84994.0, 85004.0, 85014.0, 85024.0, 85034.0, 85044.0, 85054.0, 85064.0, 85074.0, 85084.0, 85094.0, 85104.0, 85114.0, 85124.0, 85134.0, 85144.0, 85154.0, 85164.0, 85174.0, 85184.0, 85194.0, 85204.0, 85214.0, 85224.0, 85234.0, 85244.0, 85254.0, 85264.0, 85272]","example_experiment","18","12902","18","yes","768","4","[0, 0, 0, 0, 0, 0, 0, 0, 0, 0, 0, 0, 0, 0, 0, 0, 0, 0, 0, 0, 0, 0, 0, 0, 0, 0]","[0, 0, 0, 0, 0, 0, 0, 0, 0, 0, 0, 0, 0, 0, 0, 0, 0, 0, 0, 0, -1, -3, -6, -9, -12, -14, -15, -15, -12, -8, -4, -2, 0, 1, 1, 1, 1, 1, 1, 1, 1, 1, 1, 2, 4, 6, 8, 12, 15, 19, 22, 26, 29, 34, 42, 49, 53, 55, 58, 59, 61, 62, 62, 62, 61, 59, 59, 58, 58, 56, 53, 49, 45, 39, 33, 25, 20, 13, 9, 7, 7, 7, 7, 9, 10, 12, 12, 13, 14, 14, 15, 15, 15]","[0, 0, 0, 0, 0, 0, 0, 0, 0, 0, 0, 0, 0, 0, 0, 0, 0, 0, 0, 0, 0, 0, 0, 0, 0, 0]","[0, 0, 0, 0, 0, 0, 0, 0, 0, 0, 0, 0, 0, 0, 0, 0, 0, 3, 10, 23, 42, 64, 91, 122, 155, 190, 217, 238, 255, 265, 273, 277, 280, 280, 280, 280, 280, 280, 280, 280, 281, 281, 279, 273, 265, 253, 236, 206, 171, 127, 78, 35, -6, -44, -78, -107, -126, -139, -149, -156, -163, -171, -177, -181, -185, -187, -188, -188, -188, -189, -191, -194, -198, -203, -209, -216, -222, -230, -238, -248, -257, -267, -277, -286, -294, -302, -308, -312, -316, -318, -319, -320, -320]"
"100","100","713.368421053","713.368421053","black","no","prac","4","legacy","legacy","w.png","g.png","w.png","w.png","2","legacy","0","relative","1","undefined","NA","green","NA","undefined","1","undefined","undefined","green","2","0","3","0","18","0","NA","18","18","18","18","18","0","18","18","18","18","0","4","NA","NA","18","0","0","0","0","0","0","0","18","11/06/20 17:40:47","Default description","yes","simont_HV.osexp","C:\Users\admin\Desktop\채은\!MouseTracking_final","no","sans","no","18","no","black","no","yes","768","290","None","290","None","legacy","18","18","1","C:/Users/admin/Desktop/채은/!MouseTracking_final/subject-32.csv","legacy","2","2","2","Kafkaesque Koffka","3.2.6","0","green","space","NA","None","green","start","space","NA","NA","NA","NA","652","26442","NA","250","652","260","2927","NA","NA","NA","NA","2","legacy","1024","2","48000","-16","experiment","32","even","legacy","red","green","blue","yellow","1","4382","NA","NA","88071","1450","NA","86662","87166","87418","86399","NA","1454","88073","89073","87166","87418","NA","NA","NA","NA","86399","NA","NA","NA","NA","NA","NA","30825","86398","[87167.0, 87177.0, 87187.0, 87197.0, 87207.0, 87217.0, 87227.0, 87237.0, 87247.0, 87257.0, 87267.0, 87277.0, 87287.0, 87297.0, 87307.0, 87317.0, 87327.0, 87337.0, 87347.0, 87357.0, 87367.0, 87377.0, 87387.0, 87397.0, 87407.0, 87417.0]","[87418.0, 87428.0, 87438.0, 87448.0, 87458.0, 87468.0, 87478.0, 87488.0, 87498.0, 87508.0, 87518.0, 87528.0, 87538.0, 87548.0, 87558.0, 87568.0, 87578.0, 87588.0, 87598.0, 87608.0, 87618.0, 87628.0, 87638.0, 87648.0, 87658.0, 87668.0, 87678.0, 87688.0, 87698.0, 87708.0, 87718.0, 87728.0, 87738.0, 87748.0, 87758.0, 87768.0, 87778.0, 87788.0, 87798.0, 87808.0, 87818.0, 87828.0, 87838.0, 87848.0, 87858.0, 87868.0, 87878.0, 87888.0, 87898.0, 87908.0, 87918.0, 87928.0, 87938.0, 87948.0, 87958.0, 87968.0, 87978.0, 87988.0, 87998.0, 88008.0, 88018.0, 88028.0, 88038.0, 88048.0, 88058.0, 88068.0, 88070]","example_experiment","19","13554","19","yes","768","4","[0, 0, 0, 0, 0, 0, 0, 0, 0, 0, 0, 0, 0, 0, 0, 0, 0, 0, 0, 0, 0, 0, 0, 0, 0, 0]","[0, 0, 0, 0, 0, 0, 0, 0, 0, 0, 0, 0, 0, 0, 0, 0, 0, 0, 0, 0, 0, 0, 0, 0, 0, 0, 0, 0, 0, 0, 2, 7, 15, 24, 40, 58, 79, 104, 130, 157, 180, 198, 214, 224, 232, 238, 242, 244, 244, 244, 244, 244, 244, 244, 245, 246, 248, 251, 256, 262, 268, 275, 281, 285, 288, 289, 289]","[0, 0, 0, 0, 0, 0, 0, 0, 0, 0, 0, 0, 0, 0, 0, 0, 0, 0, 0, 0, 0, 0, 0, 0, 0, 0]","[0, 0, 0, 0, 0, 0, 0, 0, 0, 0, 0, 0, 0, 0, 0, 0, 0, 0, 0, 0, 0, 0, 0, 0, 0, 0, 0, 0, 0, 0, 0, 1, 1, 2, 2, 4, 6, 9, 11, 14, 14, 15, 16, 17, 17, 17, 17, 17, 17, 17, 17, 17, 17, 17, 16, 15, 14, 14, 12, 11, 10, 9, 8, 7, 7, 7, 7]"
"100","100","716.25","716.25","black","no","prac","3","legacy","legacy","y.png","w.png","w.png","w.png","2","legacy","0","relative","1","undefined","NA","yellow","NA","undefined","1","undefined","undefined","yellow","4","0","3","0","19","0","NA","19","19","19","19","19","0","19","19","19","19","0","4","NA","NA","19","0","0","0","0","0","0","0","19","11/06/20 17:40:47","Default description","yes","simont_HV.osexp","C:\Users\admin\Desktop\채은\!MouseTracking_final","no","sans","no","18","no","black","no","yes","768","370","None","370","None","legacy","19","19","2","C:/Users/admin/Desktop/채은/!MouseTracking_final/subject-32.csv","legacy","1","2","2","Kafkaesque Koffka","3.2.6","0","yellow","space","NA","None","yellow","start","space","NA","NA","NA","NA","771","26442","NA","250","771","337","2927","NA","NA","NA","NA","2","legacy","1024","2","48000","-16","experiment","32","even","legacy","red","green","blue","yellow","2","4382","NA","NA","91060","1450","NA","89532","90036","90288","89193","NA","1454","91073","92073","90036","90288","NA","NA","NA","NA","89193","NA","NA","NA","NA","NA","NA","30825","89191","[90037.0, 90047.0, 90057.0, 90067.0, 90077.0, 90087.0, 90097.0, 90107.0, 90117.0, 90127.0, 90137.0, 90147.0, 90157.0, 90167.0, 90177.0, 90187.0, 90197.0, 90207.0, 90217.0, 90227.0, 90237.0, 90247.0, 90257.0, 90267.0, 90277.0, 90287.0]","[90288.0, 90298.0, 90308.0, 90318.0, 90328.0, 90338.0, 90348.0, 90358.0, 90368.0, 90378.0, 90388.0, 90398.0, 90408.0, 90418.0, 90428.0, 90438.0, 90448.0, 90458.0, 90468.0, 90478.0, 90488.0, 90498.0, 90508.0, 90518.0, 90528.0, 90538.0, 90548.0, 90558.0, 90568.0, 90578.0, 90588.0, 90598.0, 90608.0, 90618.0, 90628.0, 90638.0, 90648.0, 90658.0, 90668.0, 90678.0, 90688.0, 90698.0, 90708.0, 90718.0, 90728.0, 90738.0, 90748.0, 90758.0, 90768.0, 90778.0, 90788.0, 90798.0, 90808.0, 90818.0, 90828.0, 90838.0, 90848.0, 90858.0, 90868.0, 90878.0, 90888.0, 90898.0, 90908.0, 90918.0, 90928.0, 90938.0, 90948.0, 90958.0, 90968.0, 90978.0, 90988.0, 90998.0, 91008.0, 91018.0, 91028.0, 91038.0, 91048.0, 91058.0, 91059]","example_experiment","20","14325","20","yes","768","3","[0, 0, 0, 0, 0, 0, 0, 0, 0, 0, 0, 0, 0, 0, 0, 0, 0, 0, 0, 0, 0, 0, 0, 0, 0, 0]","[0, 0, 0, 0, 0, 0, 0, 0, 0, 0, 0, 0, 0, 0, 0, 0, 0, 0, 0, 0, 0, 0, 0, 0, 0, 0, 0, 0, 0, 0, 0, 0, 0, 0, 0, 0, 0, 0, 0, 0, 0, 0, -2, -5, -8, -10, -11, -11, -11, -11, -13, -15, -17, -18, -19, -19, -19, -19, -19, -19, -19, -19, -19, -19, -19, -19, -19, -19, -18, -17, -17, -16, -15, -14, -14, -13, -12, -12, -11]","[0, 0, 0, 0, 0, 0, 0, 0, 0, 0, 0, 0, 0, 0, 0, 0, 0, 0, 0, 0, 0, 0, 0, 0, 0, 0]","[0, 0, 0, 0, 0, 0, 0, 0, 0, 0, 0, 0, 0, 0, 0, 0, 0, 0, 0, 0, 0, 0, 0, 0, 0, 0, 0, 0, 0, 0, 0, 0, 0, 0, 0, 0, 0, 0, 6, 19, 41, 69, 103, 133, 168, 196, 219, 239, 254, 269, 281, 292, 302, 311, 320, 327, 334, 340, 346, 352, 356, 359, 360, 360, 360, 360, 360, 359, 357, 355, 353, 350, 347, 343, 339, 333, 330, 330, 330]"
"100","100","713.238095238","713.238095238","black","no","prac","2","legacy","legacy","w.png","w.png","r.png","w.png","1","legacy","0","relative","1","undefined","NA","red","NA","undefined","1","undefined","undefined","red","1","0","3","0","20","0","NA","20","20","20","20","20","0","20","20","20","20","0","4","NA","NA","20","0","0","0","0","0","0","0","20","11/06/20 17:40:47","Default description","yes","simont_HV.osexp","C:\Users\admin\Desktop\채은\!MouseTracking_final","no","sans","no","18","no","black","no","yes","768","170","None","170","None","legacy","20","20","2","C:/Users/admin/Desktop/채은/!MouseTracking_final/subject-32.csv","legacy","2","1","2","Kafkaesque Koffka","3.2.6","0","red","space","NA","None","red","start","space","NA","NA","NA","NA","653","26442","NA","250","653","215","2927","NA","NA","NA","NA","2","legacy","1024","2","48000","-16","experiment","32","even","legacy","red","green","blue","yellow","1","4382","NA","NA","93822","1450","NA","92412","92916","93168","92195","NA","1454","93833","94833","92916","93168","NA","NA","NA","NA","92195","NA","NA","NA","NA","NA","NA","30825","92193","[92917.0, 92927.0, 92937.0, 92947.0, 92957.0, 92967.0, 92977.0, 92987.0, 92997.0, 93007.0, 93017.0, 93027.0, 93037.0, 93047.0, 93057.0, 93067.0, 93077.0, 93087.0, 93097.0, 93107.0, 93117.0, 93127.0, 93137.0, 93147.0, 93157.0, 93167.0]","[93168.0, 93178.0, 93188.0, 93198.0, 93208.0, 93218.0, 93228.0, 93238.0, 93248.0, 93258.0, 93268.0, 93278.0, 93288.0, 93298.0, 93308.0, 93318.0, 93328.0, 93338.0, 93348.0, 93358.0, 93368.0, 93378.0, 93388.0, 93398.0, 93408.0, 93418.0, 93428.0, 93438.0, 93448.0, 93458.0, 93468.0, 93478.0, 93488.0, 93498.0, 93508.0, 93518.0, 93528.0, 93538.0, 93548.0, 93558.0, 93568.0, 93578.0, 93588.0, 93598.0, 93608.0, 93618.0, 93628.0, 93638.0, 93641, 93651.0, 93661.0, 93671.0, 93681.0, 93691.0, 93701.0, 93711.0, 93721.0, 93731.0, 93741.0, 93751.0, 93761.0, 93771.0, 93781.0, 93791.0, 93801.0, 93811.0, 93821.0, 93821]","example_experiment","21","14978","21","yes","768","4","[0, 0, 0, 0, 0, 0, 0, 0, 0, 0, 0, 0, 0, 0, 0, 0, 0, 0, 0, 0, 0, 0, 0, 0, 0, 0]","[0, 0, 0, 0, 0, 0, 0, 0, 0, 0, 0, 0, 0, 0, 0, 0, 0, 0, -1, -5, -15, -30, -50, -69, -95, -121, -144, -165, -182, -200, -215, -228, -240, -250, -257, -263, -267, -270, -272, -273, -273, -273, -273, -273, -273, -273, -273, -273, -273, -273, -273, -273, -273, -273, -273, -275, -280, -285, -291, -297, -302, -306, -311, -313, -313, -313, -313, -313]","[0, 0, 0, 0, 0, 0, 0, 0, 0, 0, 0, 0, 0, 0, 0, 0, 0, 0, 0, 0, 0, 0, 0, 0, 0, 0]","[0, 0, 0, 0, 0, 0, 0, 0, 0, 0, 0, 0, 0, 0, 0, 0, 0, 0, 0, 0, 0, 2, 4, 7, 9, 10, 10, 10, 10, 10, 10, 9, 9, 9, 9, 9, 8, 8, 8, 8, 8, 8, 8, 8, 8, 8, 8, 8, 8, 8, 8, 8, 8, 8, 8, 8, 8, 8, 8, 8, 8, 8, 7, 7, 7, 7, 7, 7]"
"100","100","718.272727273","718.272727273","black","no","prac","4","legacy","legacy","w.png","w.png","w.png","y.png","2","legacy","0","relative","1","undefined","NA","yellow","NA","undefined","1","undefined","undefined","yellow","4","0","3","0","21","0","NA","21","21","21","21","21","0","21","21","21","21","0","4","NA","NA","21","0","0","0","0","0","0","0","21","11/06/20 17:40:47","Default description","yes","simont_HV.osexp","C:\Users\admin\Desktop\채은\!MouseTracking_final","no","sans","no","18","no","black","no","yes","768","100","None","100","None","legacy","21","21","1","C:/Users/admin/Desktop/채은/!MouseTracking_final/subject-32.csv","legacy","2","2","1","Kafkaesque Koffka","3.2.6","0","yellow","space","NA","None","yellow","start","space","NA","NA","NA","NA","824","26442","NA","250","824","396","2927","NA","NA","NA","NA","2","legacy","1024","2","48000","-16","experiment","32","even","legacy","red","green","blue","yellow","2","4382","NA","NA","96934","1450","NA","95353","95857","96109","94955","NA","1454","96943","97943","95857","96109","NA","NA","NA","NA","94955","NA","NA","NA","NA","NA","NA","30825","94954","[95858.0, 95868.0, 95878.0, 95888.0, 95898.0, 95908.0, 95918.0, 95928.0, 95938.0, 95948.0, 95958.0, 95968.0, 95978.0, 95988.0, 95998.0, 96008.0, 96018.0, 96028.0, 96038.0, 96048.0, 96058.0, 96068.0, 96078.0, 96088.0, 96098.0, 96108.0]","[96109.0, 96119.0, 96129.0, 96139.0, 96149.0, 96159.0, 96169.0, 96179.0, 96189.0, 96199.0, 96209.0, 96219.0, 96229.0, 96239.0, 96249.0, 96259.0, 96269.0, 96279.0, 96289.0, 96299.0, 96309.0, 96319.0, 96329.0, 96339.0, 96349.0, 96359.0, 96369.0, 96379.0, 96389.0, 96399.0, 96409.0, 96419.0, 96429.0, 96439.0, 96449.0, 96459.0, 96469.0, 96479.0, 96489.0, 96499.0, 96509.0, 96519.0, 96529.0, 96539.0, 96549.0, 96559.0, 96569.0, 96579.0, 96589.0, 96599.0, 96609.0, 96619.0, 96629.0, 96639.0, 96649.0, 96659.0, 96669.0, 96679.0, 96689.0, 96699.0, 96709.0, 96719.0, 96729.0, 96739.0, 96749.0, 96759.0, 96769.0, 96779.0, 96789.0, 96799.0, 96809.0, 96819.0, 96829.0, 96839.0, 96849.0, 96859.0, 96869.0, 96879.0, 96889.0, 96899.0, 96909.0, 96919.0, 96929.0, 96933]","example_experiment","22","15802","22","yes","768","2","[0, 0, 0, 0, 0, 0, 0, 0, 0, 0, 0, 0, 0, 0, 0, 0, 0, 0, 0, 0, 0, 0, 0, 0, 0, 0]","[0, 0, 0, 0, 0, 0, 0, 0, 0, 0, 0, -1, -2, -2, -2, -3, -3, -6, -8, -11, -13, -15, -16, -17, -18, -18, -18, -18, -18, -18, -18, -18, -18, -18, -16, -13, -9, -7, -6, -6, -6, -7, -8, -11, -13, -16, -18, -19, -21, -21, -21, -21, -21, -21, -21, -21, -21, -21, -21, -21, -21, -21, -21, -21, -21, -21, -20, -18, -14, -12, -8, -6, -4, -3, -2, -2, -2, -1, -1, 0, 0, 0, 0, 1]","[0, 0, 0, 0, 0, 0, 0, 0, 0, 0, 0, 0, 0, 0, 0, 0, 0, 0, 0, 0, 0, 0, 0, 0, 0, 0]","[0, 0, 0, 0, 0, 0, 0, 0, 0, 0, 0, -4, -11, -20, -33, -50, -69, -87, -105, -123, -140, -155, -167, -177, -187, -195, -201, -206, -209, -209, -209, -209, -207, -196, -180, -155, -121, -79, -32, 19, 66, 114, 145, 173, 196, 211, 224, 231, 236, 239, 240, 240, 240, 241, 242, 243, 244, 244, 244, 244, 244, 244, 244, 244, 244, 245, 248, 251, 258, 264, 272, 279, 287, 294, 300, 305, 309, 312, 315, 318, 319, 320, 322, 322]"
"100","100","719.826086957","719.826086957","black","no","prac","4","legacy","legacy","w.png","g.png","w.png","w.png","2","legacy","0","relative","1","undefined","NA","green","NA","undefined","1","undefined","undefined","green","2","0","3","0","22","0","NA","22","22","22","22","22","0","22","22","22","22","0","4","NA","NA","22","0","0","0","0","0","0","0","22","11/06/20 17:40:47","Default description","yes","simont_HV.osexp","C:\Users\admin\Desktop\채은\!MouseTracking_final","no","sans","no","18","no","black","no","yes","768","170","None","170","None","legacy","22","22","1","C:/Users/admin/Desktop/채은/!MouseTracking_final/subject-32.csv","legacy","2","2","2","Kafkaesque Koffka","3.2.6","0","green","space","NA","None","green","start","space","NA","NA","NA","NA","754","26442","NA","250","754","215","2927","NA","NA","NA","NA","2","legacy","1024","2","48000","-16","experiment","32","even","legacy","red","green","blue","yellow","1","4382","NA","NA","99820","1450","NA","98310","98813","99065","98093","NA","1454","99823","100823","98813","99065","NA","NA","NA","NA","98093","NA","NA","NA","NA","NA","NA","30825","98092","[98814.0, 98824.0, 98834.0, 98844.0, 98854.0, 98864.0, 98874.0, 98884.0, 98894.0, 98904.0, 98914.0, 98924.0, 98934.0, 98944.0, 98954.0, 98964.0, 98974.0, 98984.0, 98994.0, 99004.0, 99014.0, 99024.0, 99034.0, 99044.0, 99054.0, 99064.0]","[99065.0, 99075.0, 99085.0, 99095.0, 99105.0, 99115.0, 99125.0, 99135.0, 99145.0, 99155.0, 99165.0, 99175.0, 99185.0, 99195.0, 99205.0, 99215.0, 99225.0, 99235.0, 99245.0, 99255.0, 99265.0, 99275.0, 99285.0, 99295.0, 99305.0, 99315.0, 99325.0, 99335.0, 99345.0, 99355.0, 99365.0, 99375.0, 99385.0, 99395.0, 99405.0, 99415.0, 99425.0, 99435.0, 99445.0, 99455.0, 99465.0, 99475.0, 99485.0, 99495.0, 99505.0, 99515.0, 99525.0, 99535.0, 99545.0, 99555.0, 99565.0, 99575.0, 99585.0, 99595.0, 99605.0, 99615.0, 99625.0, 99635.0, 99645.0, 99655.0, 99665.0, 99675.0, 99685.0, 99695.0, 99705.0, 99715.0, 99725.0, 99735.0, 99745.0, 99755.0, 99765.0, 99775.0, 99785.0, 99795.0, 99805.0, 99815.0, 99819]","example_experiment","23","16556","23","yes","768","4","[0, 0, 0, 0, 0, 0, 0, 0, 0, 0, 0, 0, 0, 0, 0, 0, 0, 0, 0, 0, 0, 0, 0, 0, 0, 0]","[0, 0, 0, 0, 0, 0, 0, 0, 0, 0, 0, 0, 0, 0, 0, 0, 0, 0, -5, -13, -25, -39, -51, -60, -66, -69, -69, -69, -69, -68, -63, -56, -46, -32, -15, 2, 25, 47, 72, 97, 122, 146, 165, 182, 198, 212, 223, 232, 238, 241, 242, 242, 242, 242, 242, 243, 243, 244, 245, 246, 247, 248, 250, 252, 257, 263, 269, 275, 282, 287, 290, 294, 296, 297, 297, 297, 297]","[0, 0, 0, 0, 0, 0, 0, 0, 0, 0, 0, 0, 0, 0, 0, 0, 0, 0, 0, 0, 0, 0, 0, 0, 0, 0]","[0, 0, 0, 0, 0, 0, 0, 0, 0, 0, 0, 0, 0, 0, 0, 0, 0, 0, 0, 0, 0, 0, 0, 0, 1, 1, 1, 1, 1, 1, 1, 0, -1, -1, -1, -1, -1, -1, -1, 0, 0, 1, 1, 1, 1, 1, 1, 1, 1, 1, 1, 1, 1, 1, 1, 0, 0, -1, -1, -2, -3, -3, -4, -4, -5, -5, -7, -8, -8, -10, -10, -11, -11, -11, -12, -12, -12]"
"100","100","721.541666667","721.541666667","black","no","prac","3","legacy","legacy","w.png","w.png","w.png","b.png","1","legacy","0","relative","1","undefined","NA","blue","NA","undefined","1","undefined","undefined","blue","3","0","3","0","23","0","NA","23","23","23","23","23","0","23","23","23","23","0","4","NA","NA","23","0","0","0","0","0","0","0","23","11/06/20 17:40:47","Default description","yes","simont_HV.osexp","C:\Users\admin\Desktop\채은\!MouseTracking_final","no","sans","no","18","no","black","no","yes","768","270","None","270","None","legacy","23","23","1","C:/Users/admin/Desktop/채은/!MouseTracking_final/subject-32.csv","legacy","1","2","2","Kafkaesque Koffka","3.2.6","0","blue","space","NA","None","blue","start","space","NA","NA","NA","NA","761","26442","NA","250","761","168","2927","NA","NA","NA","NA","2","legacy","1024","2","48000","-16","experiment","32","even","legacy","red","green","blue","yellow","2","4382","NA","NA","102639","1450","NA","101121","101625","101877","100951","NA","1454","102643","103643","101625","101877","NA","NA","NA","NA","100950","NA","NA","NA","NA","NA","NA","30825","100949","[101626.0, 101636.0, 101646.0, 101656.0, 101666.0, 101676.0, 101686.0, 101696.0, 101706.0, 101716.0, 101726.0, 101736.0, 101746.0, 101756.0, 101766.0, 101776.0, 101786.0, 101796.0, 101806.0, 101816.0, 101826.0, 101836.0, 101846.0, 101856.0, 101866.0, 101876.0]","[101877.0, 101887.0, 101897.0, 101907.0, 101917.0, 101927.0, 101937.0, 101947.0, 101957.0, 101967.0, 101977.0, 101987.0, 101997.0, 102007.0, 102017.0, 102027.0, 102037.0, 102047.0, 102057.0, 102067.0, 102077.0, 102087.0, 102097.0, 102107.0, 102117.0, 102127.0, 102137.0, 102147.0, 102157.0, 102167.0, 102177.0, 102187.0, 102197.0, 102207.0, 102217.0, 102227.0, 102237.0, 102247.0, 102257.0, 102267.0, 102277.0, 102287.0, 102297.0, 102307.0, 102317.0, 102327.0, 102337.0, 102347.0, 102357.0, 102367.0, 102377.0, 102387.0, 102397.0, 102407.0, 102417.0, 102427.0, 102437.0, 102447.0, 102457.0, 102467.0, 102477.0, 102487.0, 102497.0, 102507.0, 102517.0, 102527.0, 102537.0, 102547.0, 102557.0, 102567.0, 102577.0, 102587.0, 102597.0, 102607.0, 102617.0, 102627.0, 102637.0, 102638]","example_experiment","24","17317","24","yes","768","3","[0, 0, 0, 0, 0, 0, 0, 0, 0, 0, 0, 0, 0, 0, 0, 0, 0, 0, 0, 0, 0, 0, 0, 0, 0, 0]","[0, 0, 0, 0, 0, 0, 0, 0, 0, 0, 0, 0, 0, 0, 0, 0, 0, 0, 0, 0, 0, 0, 0, 0, 0, 0, 0, 0, -1, -2, -4, -6, -7, -8, -9, -9, -9, -9, -9, -9, -9, -9, -9, -9, -9, -8, -7, -5, -4, -4, -3, -3, -3, -3, -3, -3, -3, -3, -3, -3, -5, -7, -8, -9, -11, -12, -13, -14, -15, -15, -15, -15, -15, -15, -15, -15, -15, -15]","[0, 0, 0, 0, 0, 0, 0, 0, 0, 0, 0, 0, 0, 0, 0, 0, 0, 0, 0, 0, 0, 0, 0, 0, 0, 0]","[0, 0, 0, 0, 0, 0, 0, 0, 0, 0, 0, 0, 0, 0, 0, 0, 0, 0, 0, 0, 0, 0, 0, 0, 0, 0, 0, 0, -3, -7, -11, -14, -17, -18, -19, -19, -19, -19, -19, -19, -19, -19, -21, -25, -30, -39, -50, -65, -81, -99, -115, -134, -151, -168, -186, -201, -215, -227, -238, -246, -254, -261, -267, -273, -278, -283, -288, -291, -293, -295, -295, -296, -296, -296, -296, -296, -296, -296]"
"100","100","712.44","712.44","black","no","prac","1","legacy","legacy","w.png","r.png","w.png","w.png","1","legacy","0","relative","1","undefined","NA","red","NA","undefined","1","undefined","undefined","red","1","0","3","0","24","0","NA","24","24","24","24","24","0","24","24","24","24","0","4","NA","NA","24","0","0","0","0","0","0","0","24","11/06/20 17:40:47","Default description","yes","simont_HV.osexp","C:\Users\admin\Desktop\채은\!MouseTracking_final","no","sans","no","18","no","black","no","yes","768","80","None","80","None","legacy","24","24","1","C:/Users/admin/Desktop/채은/!MouseTracking_final/subject-32.csv","legacy","1","1","2","Kafkaesque Koffka","3.2.6","0","red","space","NA","None","red","start","space","NA","NA","NA","NA","494","26442","NA","250","494","236","2927","NA","NA","NA","NA","2","legacy","1024","2","48000","-16","experiment","32","even","legacy","red","green","blue","yellow","1","4382","NA","NA","105258","1450","NA","104008","104512","104763","103770","NA","1454","105263","106263","104511","104763","NA","NA","NA","NA","103770","NA","NA","NA","NA","NA","NA","30825","103769","[104512.0, 104522.0, 104532.0, 104542.0, 104552.0, 104562.0, 104572.0, 104582.0, 104592.0, 104602.0, 104612.0, 104622.0, 104632.0, 104642.0, 104652.0, 104662.0, 104672.0, 104682.0, 104692.0, 104702.0, 104712.0, 104722.0, 104732.0, 104742.0, 104752.0, 104762.0]","[104763.0, 104773.0, 104783.0, 104793.0, 104803.0, 104813.0, 104823.0, 104833.0, 104843.0, 104853.0, 104863.0, 104873.0, 104883.0, 104893.0, 104903.0, 104913.0, 104923.0, 104933.0, 104943.0, 104953.0, 104963.0, 104973.0, 104983.0, 104993.0, 105003.0, 105013.0, 105023.0, 105033.0, 105043.0, 105053.0, 105063.0, 105073.0, 105083.0, 105093.0, 105103.0, 105113.0, 105123.0, 105133.0, 105143.0, 105153.0, 105163.0, 105173.0, 105183.0, 105193.0, 105203.0, 105213.0, 105223.0, 105233.0, 105243.0, 105253.0, 105257]","example_experiment","25","17811","25","yes","768","3","[0, 0, 0, 0, 0, 0, 0, 0, 0, 0, 0, 0, 0, 0, 0, 0, 0, 0, 0, 0, 0, 0, 0, 0, 0, 0]","[0, 0, 0, 0, 0, 0, 0, 0, 0, -4, -11, -20, -31, -47, -67, -89, -111, -135, -156, -176, -196, -215, -229, -241, -250, -256, -261, -265, -270, -274, -279, -284, -289, -294, -297, -300, -301, -301, -301, -301, -301, -301, -302, -303, -304, -304, -304, -304, -304, -304, -304]","[0, 0, 0, 0, 0, 0, 0, 0, 0, 0, 0, 0, 0, 0, 0, 0, 0, 0, 0, 0, 0, 0, 0, 0, 0, 0]","[0, 0, 0, 0, 0, 0, 0, 0, 0, 0, 2, 2, 3, 4, 4, 4, 4, 4, 4, 5, 6, 7, 9, 9, 11, 11, 12, 12, 13, 14, 14, 15, 16, 17, 17, 18, 18, 18, 18, 18, 18, 18, 18, 18, 18, 18, 18, 18, 18, 18, 18]"
"100","100","714","714","black","no","prac","2","legacy","legacy","w.png","w.png","w.png","y.png","2","legacy","0","relative","1","undefined","NA","yellow","NA","undefined","1","undefined","undefined","yellow","4","0","3","0","25","0","NA","25","25","25","25","25","0","25","25","25","25","0","4","NA","NA","25","0","0","0","0","0","0","0","25","11/06/20 17:40:47","Default description","yes","simont_HV.osexp","C:\Users\admin\Desktop\채은\!MouseTracking_final","no","sans","no","18","no","black","no","yes","768","0","130","0","None","legacy","25","25","1","C:/Users/admin/Desktop/채은/!MouseTracking_final/subject-32.csv","legacy","2","1","1","Kafkaesque Koffka","3.2.6","0","yellow","space","NA","None","yellow","start","space","NA","NA","NA","NA","753","26442","NA","250","753","225","2927","NA","NA","NA","NA","2","legacy","1024","2","48000","-16","experiment","32","even","legacy","red","green","blue","yellow","2","4382","NA","NA","108118","1450","NA","106608","107112","107364","106381","NA","1454","108123","109123","107112","107364","NA","NA","NA","NA","106381","NA","NA","NA","NA","NA","NA","30825","106380","[107113.0, 107123.0, 107133.0, 107143.0, 107153.0, 107163.0, 107173.0, 107183.0, 107193.0, 107203.0, 107213.0, 107223.0, 107233.0, 107243.0, 107253.0, 107263.0, 107273.0, 107283.0, 107293.0, 107303.0, 107313.0, 107323.0, 107333.0, 107343.0, 107353.0, 107363.0]","[107364.0, 107374.0, 107384.0, 107394.0, 107404.0, 107414.0, 107424.0, 107434.0, 107444.0, 107454.0, 107464.0, 107474.0, 107484.0, 107494.0, 107504.0, 107514.0, 107524.0, 107534.0, 107544.0, 107554.0, 107564.0, 107574.0, 107584.0, 107594.0, 107604.0, 107614.0, 107624.0, 107634.0, 107644.0, 107654.0, 107664.0, 107674.0, 107684.0, 107694.0, 107704.0, 107714.0, 107724.0, 107734.0, 107744.0, 107754.0, 107764.0, 107774.0, 107784.0, 107794.0, 107804.0, 107814.0, 107824.0, 107834.0, 107844.0, 107854.0, 107864.0, 107874.0, 107884.0, 107894.0, 107904.0, 107914.0, 107924.0, 107934.0, 107944.0, 107954.0, 107964.0, 107974.0, 107984.0, 107994.0, 108004.0, 108014.0, 108024.0, 108034.0, 108044.0, 108054.0, 108064.0, 108074.0, 108084.0, 108094.0, 108104.0, 108114.0, 108117]","example_experiment","26","18564","26","yes","768","2","[0, 0, 0, 0, 0, 0, 0, 0, 0, 0, 0, 0, 0, 0, -1, -2, -3, -3, -3, -3, -3, -3, -3, -4, -6, -7]","[-7, -10, -12, -14, -16, -17, -19, -21, -22, -24, -27, -29, -32, -34, -35, -36, -37, -37, -38, -38, -38, -37, -34, -31, -28, -27, -25, -23, -20, -16, -12, -7, -3, 1, 3, 3, 1, -3, -6, -8, -9, -11, -12, -14, -15, -16, -16, -16, -16, -16, -16, -16, -16, -16, -16, -16, -16, -16, -16, -15, -12, -9, -5, -2, 2, 5, 6, 8, 8, 8, 8, 8, 8, 8, 8, 8, 8]","[0, 0, 0, 0, 0, 0, 0, 0, 0, 0, 0, 0, 0, 0, 3, 6, 6, 6, 7, 7, 7, 7, 7, 7, 7, 7]","[7, 5, 4, 1, -4, -10, -19, -31, -41, -52, -63, -73, -84, -91, -97, -102, -109, -118, -129, -140, -150, -161, -171, -177, -180, -180, -180, -176, -166, -147, -122, -94, -61, -24, 17, 54, 90, 121, 149, 169, 185, 195, 203, 209, 214, 218, 221, 223, 223, 223, 223, 224, 226, 231, 237, 242, 247, 251, 255, 261, 268, 277, 284, 291, 299, 305, 308, 311, 312, 312, 312, 312, 312, 312, 312, 312, 312]"
"100","100","709.407407407","709.407407407","black","no","prac","3","legacy","legacy","w.png","w.png","g.png","w.png","2","legacy","0","relative","1","undefined","NA","green","NA","undefined","1","undefined","undefined","green","2","0","3","0","26","0","NA","26","26","26","26","26","0","26","26","26","26","0","4","NA","NA","26","0","0","0","0","0","0","0","26","11/06/20 17:40:47","Default description","yes","simont_HV.osexp","C:\Users\admin\Desktop\채은\!MouseTracking_final","no","sans","no","18","no","black","no","yes","768","60","None","60","310","legacy","26","26","2","C:/Users/admin/Desktop/채은/!MouseTracking_final/subject-32.csv","legacy","1","2","1","Kafkaesque Koffka","3.2.6","0","green","space","NA","None","green","start","space","NA","NA","NA","NA","590","26442","NA","250","590","346","2927","NA","NA","NA","NA","2","legacy","1024","2","48000","-16","experiment","32","even","legacy","red","green","blue","yellow","1","4382","NA","NA","110933","1450","NA","109587","110091","110342","109239","NA","1454","110962","111962","110091","110342","NA","NA","NA","NA","109239","NA","NA","NA","NA","NA","NA","30825","109238","[110091.0, 110102.0, 110112.0, 110122.0, 110132.0, 110142.0, 110152.0, 110162.0, 110172.0, 110182.0, 110192.0, 110202.0, 110212.0, 110222.0, 110232.0, 110242.0, 110252.0, 110262.0, 110272.0, 110282.0, 110292.0, 110302.0, 110312.0, 110322.0, 110332.0, 110341.0]","[110342.0, 110352.0, 110362.0, 110372.0, 110382.0, 110392.0, 110402.0, 110412.0, 110422.0, 110432.0, 110442.0, 110452.0, 110462.0, 110472.0, 110482.0, 110492.0, 110502.0, 110512.0, 110522.0, 110532.0, 110542.0, 110552.0, 110562.0, 110572.0, 110582.0, 110592.0, 110602.0, 110612.0, 110622.0, 110632.0, 110642.0, 110652.0, 110662.0, 110672.0, 110682.0, 110692.0, 110702.0, 110712.0, 110722.0, 110732.0, 110742.0, 110752.0, 110762.0, 110772.0, 110782.0, 110792.0, 110802.0, 110812.0, 110822.0, 110832.0, 110842.0, 110852.0, 110862.0, 110872.0, 110882.0, 110892.0, 110902.0, 110912.0, 110922.0, 110932.0, 110932]","example_experiment","27","19154","27","yes","768","1","[0, 0, 0, 0, 0, 0, 0, 0, 0, 0, 0, 0, 0, 0, 0, 0, 0, 0, 0, 0, 0, 0, 0, 0, 0, 0]","[0, 0, 0, 0, 0, 0, 0, 0, 0, 0, 0, 0, 1, 2, 5, 10, 15, 20, 23, 24, 24, 25, 27, 30, 34, 43, 54, 69, 83, 101, 122, 145, 175, 203, 228, 253, 271, 284, 290, 292, 292, 292, 292, 292, 292, 292, 292, 292, 292, 292, 292, 292, 292, 292, 292, 292, 292, 292, 292, 292, 292]","[0, 0, 0, 0, 0, 0, 0, 0, 0, 0, 0, 0, 0, 0, 0, 0, 0, 0, 0, 0, 0, 0, 0, 0, 0, 0]","[0, 0, 0, 0, 0, 0, 0, -1, -1, -2, -3, -3, -4, -4, -5, -6, -6, -7, -7, -7, -7, -7, -7, -5, -3, -1, 0, 0, 0, 0, -2, -2, -2, -3, -3, -3, -3, -3, -3, -3, -3, -3, -3, -3, -3, -3, -3, -3, -3, -3, -3, -3, -3, -3, -3, -3, -3, -3, -3, -3, -3]"
"100","100","709.464285714","709.464285714","black","no","prac","2","legacy","legacy","b.png","w.png","w.png","w.png","1","legacy","0","relative","1","undefined","NA","blue","NA","undefined","1","undefined","undefined","blue","3","0","3","0","27","0","NA","27","27","27","27","27","0","27","27","27","27","0","4","NA","NA","27","0","0","0","0","0","0","0","27","11/06/20 17:40:47","Default description","yes","simont_HV.osexp","C:\Users\admin\Desktop\채은\!MouseTracking_final","no","sans","no","18","no","black","no","yes","768","110","None","110","None","legacy","27","27","2","C:/Users/admin/Desktop/채은/!MouseTracking_final/subject-32.csv","legacy","2","1","2","Kafkaesque Koffka","3.2.6","0","blue","space","NA","None","blue","start","space","NA","NA","NA","NA","711","26442","NA","250","711","198","2927","NA","NA","NA","NA","2","legacy","1024","2","48000","-16","experiment","32","even","legacy","red","green","blue","yellow","2","4382","NA","NA","113756","1450","NA","112288","112792","113044","112088","NA","1454","113773","114773","112792","113044","NA","NA","NA","NA","112088","NA","NA","NA","NA","NA","NA","30825","112086","[112793.0, 112803.0, 112813.0, 112823.0, 112833.0, 112843.0, 112853.0, 112863.0, 112873.0, 112883.0, 112893.0, 112903.0, 112913.0, 112923.0, 112933.0, 112943.0, 112953.0, 112963.0, 112973.0, 112983.0, 112993.0, 113003.0, 113013.0, 113023.0, 113033.0, 113043.0]","[113044.0, 113054.0, 113064.0, 113074.0, 113084.0, 113094.0, 113104.0, 113114.0, 113124.0, 113134.0, 113144.0, 113154.0, 113164.0, 113174.0, 113184.0, 113194.0, 113204.0, 113214.0, 113224.0, 113234.0, 113244.0, 113254.0, 113264.0, 113274.0, 113284.0, 113294.0, 113304.0, 113314.0, 113324.0, 113334.0, 113344.0, 113354.0, 113364.0, 113374.0, 113384.0, 113394.0, 113404.0, 113414.0, 113424.0, 113434.0, 113444.0, 113454.0, 113464.0, 113474.0, 113484.0, 113494.0, 113504.0, 113514.0, 113524.0, 113534.0, 113544.0, 113554.0, 113564.0, 113574.0, 113584.0, 113594.0, 113604.0, 113614.0, 113624.0, 113634.0, 113644.0, 113654.0, 113664.0, 113674.0, 113684.0, 113694.0, 113704.0, 113714.0, 113724.0, 113734.0, 113744.0, 113754.0, 113755]","example_experiment","28","19865","28","yes","768","4","[0, 0, 0, 0, 0, 0, 0, 0, 0, 0, 0, 0, 0, 0, 0, 0, 0, 0, 0, 0, 0, 0, 0, 0, 0, 0]","[0, 0, 0, 0, 0, 0, 0, 0, 0, 0, 0, 0, 0, -1, -3, -5, -7, -9, -10, -11, -11, -11, -11, -11, -11, -11, -11, -11, -11, -10, -6, -2, 4, 11, 16, 20, 24, 26, 27, 27, 27, 27, 27, 27, 25, 23, 22, 20, 19, 18, 16, 16, 15, 14, 13, 10, 7, 2, -3, -8, -12, -18, -22, -26, -29, -30, -30, -30, -29, -27, -25, -24, -23]","[0, 0, 0, 0, 0, 0, 0, 0, 0, 0, 0, 0, 0, 0, 0, 0, 0, 0, 0, 0, 0, 0, 0, 0, 0, 0]","[0, 0, 0, 0, 0, 0, 0, 0, 0, 0, 0, 0, 1, 9, 22, 41, 57, 73, 85, 94, 99, 102, 104, 104, 104, 104, 104, 102, 98, 90, 76, 58, 33, -1, -35, -67, -97, -122, -144, -164, -182, -199, -213, -225, -233, -239, -244, -247, -249, -251, -252, -253, -253, -253, -253, -253, -253, -253, -253, -254, -257, -262, -267, -274, -280, -286, -292, -297, -302, -307, -310, -312, -312]"
"100","100","706.655172414","706.655172414","black","no","prac","4","legacy","legacy","b.png","w.png","w.png","w.png","1","legacy","0","relative","1","undefined","NA","blue","NA","undefined","1","undefined","undefined","blue","3","0","3","0","28","0","NA","28","28","28","28","28","0","28","28","28","28","0","4","NA","NA","28","0","0","0","0","0","0","0","28","11/06/20 17:40:47","Default description","yes","simont_HV.osexp","C:\Users\admin\Desktop\채은\!MouseTracking_final","no","sans","no","18","no","black","no","yes","768","210","None","210","120","legacy","28","28","2","C:/Users/admin/Desktop/채은/!MouseTracking_final/subject-32.csv","legacy","2","2","2","Kafkaesque Koffka","3.2.6","0","blue","space","NA","None","blue","start","space","NA","NA","NA","NA","628","26442","NA","250","628","231","2927","NA","NA","NA","NA","2","legacy","1024","2","48000","-16","experiment","32","even","legacy","red","green","blue","yellow","2","4382","NA","NA","116499","1450","NA","115114","115618","115870","114881","NA","1454","116503","117503","115618","115870","NA","NA","NA","NA","114881","NA","NA","NA","NA","NA","NA","30825","114880","[115619.0, 115629.0, 115639.0, 115649.0, 115659.0, 115669.0, 115679.0, 115689.0, 115699.0, 115709.0, 115719.0, 115729.0, 115739.0, 115749.0, 115759.0, 115769.0, 115779.0, 115789.0, 115799.0, 115809.0, 115819.0, 115829.0, 115839.0, 115849.0, 115859.0, 115869.0]","[115870.0, 115880.0, 115890.0, 115900.0, 115910.0, 115920.0, 115930.0, 115940.0, 115950.0, 115960.0, 115970.0, 115980.0, 115990.0, 116000.0, 116010.0, 116020.0, 116030.0, 116040.0, 116050.0, 116060.0, 116070.0, 116080.0, 116090.0, 116100.0, 116110.0, 116120.0, 116130.0, 116140.0, 116150.0, 116160.0, 116170.0, 116180.0, 116190.0, 116200.0, 116210.0, 116220.0, 116230.0, 116240.0, 116250.0, 116260.0, 116270.0, 116280.0, 116290.0, 116300.0, 116310.0, 116320.0, 116330.0, 116340.0, 116350.0, 116360.0, 116370.0, 116380.0, 116390.0, 116400.0, 116410.0, 116420.0, 116430.0, 116440.0, 116450.0, 116460.0, 116470.0, 116480.0, 116490.0, 116498]","example_experiment","29","20493","29","yes","768","4","[0, 0, 0, 0, 0, 0, 0, 0, 0, 0, 0, 0, 0, 0, 0, 0, 0, 0, 0, 0, 0, 0, 0, 0, 0, 0]","[0, 0, 0, 0, 0, 0, 0, 0, 0, 0, 0, 0, 0, 0, 0, 0, 0, 0, 0, 0, 0, 0, 0, 0, 0, 0, 2, 6, 9, 13, 16, 19, 21, 24, 26, 30, 34, 37, 38, 38, 38, 38, 37, 34, 30, 26, 21, 16, 12, 9, 6, 2, -2, -5, -9, -12, -15, -17, -18, -19, -19, -19, -19, -19]","[0, 0, 0, 0, 0, 0, 0, 0, 0, 0, 0, 0, 0, 0, 0, 0, 0, 0, 0, 0, 0, 0, 0, 0, 0, 0]","[0, 0, 0, 0, 0, 0, 0, 0, 0, 0, 0, 0, 0, 0, 0, 0, 0, 0, 0, 0, 0, 0, -1, -5, -11, -18, -29, -46, -65, -85, -108, -130, -150, -169, -188, -210, -228, -247, -263, -278, -288, -298, -304, -311, -315, -319, -322, -323, -325, -325, -325, -325, -324, -323, -321, -319, -317, -315, -313, -313, -313, -313, -313, -313]"
"100","100","704.2","704.2","black","no","prac","3","legacy","legacy","w.png","w.png","g.png","w.png","2","legacy","0","relative","1","undefined","NA","green","NA","undefined","1","undefined","undefined","green","2","0","3","0","29","0","NA","29","29","29","29","29","0","29","29","29","29","0","4","NA","NA","29","0","0","0","0","0","0","0","29","11/06/20 17:40:47","Default description","yes","simont_HV.osexp","C:\Users\admin\Desktop\채은\!MouseTracking_final","no","sans","no","18","no","black","no","yes","768","170","None","170","None","legacy","29","29","2","C:/Users/admin/Desktop/채은/!MouseTracking_final/subject-32.csv","legacy","1","2","2","Kafkaesque Koffka","3.2.6","0","green","space","NA","None","green","start","space","NA","NA","NA","NA","633","26442","NA","250","633","224","2927","NA","NA","NA","NA","2","legacy","1024","2","48000","-16","experiment","32","even","legacy","red","green","blue","yellow","1","4382","NA","NA","119229","1450","NA","117842","118344","118595","117615","NA","1454","119233","120233","118344","118595","NA","NA","NA","NA","117615","NA","NA","NA","NA","NA","NA","30825","117614","[118344.0, 118354.0, 118364.0, 118374.0, 118384.0, 118394.0, 118404.0, 118414.0, 118424.0, 118434.0, 118444.0, 118454.0, 118464.0, 118474.0, 118484.0, 118494.0, 118504.0, 118514.0, 118524.0, 118534.0, 118544.0, 118554.0, 118564.0, 118574.0, 118584.0, 118594.0]","[118595.0, 118605.0, 118615.0, 118625.0, 118635.0, 118645.0, 118655.0, 118665.0, 118675.0, 118685.0, 118695.0, 118705.0, 118715.0, 118725.0, 118735.0, 118745.0, 118755.0, 118765.0, 118775.0, 118785.0, 118795.0, 118805.0, 118815.0, 118825.0, 118835.0, 118845.0, 118855.0, 118865.0, 118875.0, 118885.0, 118895.0, 118905.0, 118915.0, 118925.0, 118935.0, 118945.0, 118955.0, 118965.0, 118975.0, 118985.0, 118995.0, 119005.0, 119015.0, 119025.0, 119035.0, 119045.0, 119055.0, 119065.0, 119075.0, 119085.0, 119095.0, 119105.0, 119115.0, 119125.0, 119135.0, 119145.0, 119155.0, 119165.0, 119175.0, 119185.0, 119195.0, 119205.0, 119215.0, 119225.0, 119228]","example_experiment","30","21126","30","yes","768","3","[0, 0, 0, 0, 0, 0, 0, 0, 0, 0, 0, 0, 0, 0, 0, 0, 0, 0, 0, 0, 0, 0, 0, 0, 0, 0]","[0, 0, 0, 0, 0, 0, 0, 0, 0, 0, 0, 0, 0, 0, 0, 0, 0, 0, 2, 6, 12, 20, 29, 41, 55, 72, 91, 108, 125, 144, 159, 173, 187, 199, 209, 218, 225, 232, 238, 243, 249, 255, 261, 267, 272, 276, 280, 282, 284, 285, 286, 288, 290, 293, 299, 303, 306, 309, 312, 313, 313, 313, 313, 313, 313]","[0, 0, 0, 0, 0, 0, 0, 0, 0, 0, 0, 0, 0, 0, 0, 0, 0, 0, 0, 0, 0, 0, 0, 0, 0, 0]","[0, 0, 0, 0, 0, 0, 0, 0, 0, 0, 0, 0, 0, 0, 0, 0, 0, 0, 0, 0, 0, -2, -2, -2, -2, -2, -2, -2, -2, -2, -1, 0, 1, 3, 4, 5, 6, 6, 7, 8, 8, 8, 8, 8, 8, 8, 8, 8, 8, 8, 8, 8, 8, 7, 7, 7, 6, 6, 5, 5, 5, 5, 5, 5, 5]"
"100","100","698.935483871","698.935483871","black","no","block1","0","legacy","legacy","w.png","r.png","w.png","w.png","1","legacy","0","relative","1","undefined","NA","red","NA","undefined","1","undefined","undefined","red","1","0","3","0","30","0","NA","30","30","30","30","30","0","30","30","30","30","0","4","NA","NA","30","0","0","0","0","0","0","0","30","11/06/20 17:40:47","Default description","yes","simont_HV.osexp","C:\Users\admin\Desktop\채은\!MouseTracking_final","no","sans","no","18","no","black","no","yes","768","70","None","70","400","legacy","0","29","1","C:/Users/admin/Desktop/채은/!MouseTracking_final/subject-32.csv","legacy","1","0","0","Kafkaesque Koffka","3.2.6","0","red","space","NA","None","red","start","space","space","NA","NA","NA","541","26442","NA","250","541","576","2927","39665","NA","NA","NA","2","legacy","1024","2","48000","-16","experiment","32","even","legacy","red","green","blue","yellow","1","4382","NA","NA","161877","1450","NA","160579","161083","161335","160000","NA","1454","161883","162883","161083","161335","120270","NA","NA","NA","160000","159936","NA","NA","NA","NA","NA","30825","159999","[161084.0, 161094.0, 161104.0, 161114.0, 161124.0, 161134.0, 161144.0, 161154.0, 161164.0, 161174.0, 161184.0, 161194.0, 161204.0, 161214.0, 161224.0, 161234.0, 161244.0, 161254.0, 161264.0, 161274.0, 161284.0, 161294.0, 161304.0, 161314.0, 161324.0, 161334.0]","[161335.0, 161345.0, 161355.0, 161365.0, 161375.0, 161385.0, 161395.0, 161405.0, 161415.0, 161425.0, 161435.0, 161445.0, 161455.0, 161465.0, 161475.0, 161485.0, 161495.0, 161505.0, 161515.0, 161525.0, 161535.0, 161545.0, 161555.0, 161565.0, 161575.0, 161585.0, 161595.0, 161605.0, 161615.0, 161625.0, 161635.0, 161645.0, 161655.0, 161665.0, 161675.0, 161685.0, 161695.0, 161705.0, 161715.0, 161725.0, 161735.0, 161745.0, 161755.0, 161765.0, 161775.0, 161785.0, 161795.0, 161805.0, 161815.0, 161825.0, 161835.0, 161845.0, 161855.0, 161865.0, 161875.0, 161876]","example_experiment","31","21667","31","yes","768","0","[0, 0, 0, 0, 0, 0, 0, 0, 0, 0, 0, 0, 0, 0, 0, 0, 0, 0, 0, 0, 0, 0, 0, 0, 0, 0]","[0, 0, 0, 0, 0, 0, 0, 0, -2, -9, -19, -31, -50, -69, -93, -115, -142, -164, -188, -206, -223, -239, -251, -260, -268, -272, -275, -275, -275, -275, -275, -275, -275, -275, -275, -275, -275, -275, -275, -275, -275, -275, -275, -275, -279, -284, -290, -297, -303, -308, -311, -312, -313, -313, -313, -313]","[0, 0, 0, 0, 0, 0, 0, 0, 0, 0, 0, 0, 0, 0, 0, 0, 0, 0, 0, 0, 0, 0, 0, 0, 0, 0]","[0, 0, 0, 0, 0, 0, 0, 0, 1, 3, 5, 5, 5, 5, 5, 4, 2, 0, -3, -6, -8, -10, -11, -12, -13, -14, -15, -15, -15, -15, -15, -15, -15, -15, -15, -15, -15, -15, -15, -15, -15, -15, -15, -15, -14, -13, -12, -12, -11, -11, -11, -11, -11, -11, -11, -11]"
"100","100","702.4375","702.4375","black","no","block1","0","legacy","legacy","w.png","w.png","w.png","b.png","1","legacy","0","relative","1","undefined","NA","blue","NA","undefined","1","undefined","undefined","blue","3","0","3","0","31","0","NA","31","31","31","31","31","0","31","31","31","31","0","4","NA","NA","31","0","0","0","0","0","0","0","31","11/06/20 17:40:47","Default description","yes","simont_HV.osexp","C:\Users\admin\Desktop\채은\!MouseTracking_final","no","sans","no","18","no","black","no","yes","768","240","None","240","None","legacy","1","29","1","C:/Users/admin/Desktop/채은/!MouseTracking_final/subject-32.csv","legacy","1","1","0","Kafkaesque Koffka","3.2.6","0","blue","space","NA","None","blue","start","space","space","NA","NA","NA","811","26442","NA","250","811","426","2927","39665","NA","NA","NA","2","legacy","1024","2","48000","-16","experiment","32","even","legacy","red","green","blue","yellow","2","4382","NA","NA","164987","1450","NA","163421","163924","164175","162993","NA","1454","164993","165993","163923","164175","120270","NA","NA","NA","162993","159936","NA","NA","NA","NA","NA","30825","162992","[163924.0, 163934.0, 163944.0, 163954.0, 163964.0, 163974.0, 163984.0, 163994.0, 164004.0, 164014.0, 164024.0, 164034.0, 164044.0, 164054.0, 164064.0, 164074.0, 164084.0, 164094.0, 164104.0, 164114.0, 164124.0, 164134.0, 164144.0, 164154.0, 164164.0, 164174.0]","[164175.0, 164185.0, 164195.0, 164205.0, 164215.0, 164225.0, 164235.0, 164245.0, 164255.0, 164265.0, 164275.0, 164285.0, 164295.0, 164305.0, 164315.0, 164325.0, 164335.0, 164345.0, 164355.0, 164365.0, 164375.0, 164385.0, 164395.0, 164405.0, 164415.0, 164425.0, 164435.0, 164445.0, 164455.0, 164465.0, 164475.0, 164485.0, 164495.0, 164505.0, 164515.0, 164525.0, 164535.0, 164545.0, 164555.0, 164565.0, 164575.0, 164585.0, 164595.0, 164605.0, 164615.0, 164625.0, 164635.0, 164645.0, 164655.0, 164665.0, 164675.0, 164685.0, 164695.0, 164705.0, 164715.0, 164725.0, 164735.0, 164745.0, 164755.0, 164765.0, 164775.0, 164785.0, 164795.0, 164805.0, 164815.0, 164825.0, 164835.0, 164845.0, 164855.0, 164865.0, 164875.0, 164885.0, 164895.0, 164905.0, 164915.0, 164925.0, 164935.0, 164945.0, 164955.0, 164965.0, 164975.0, 164985.0, 164986]","example_experiment","32","22478","32","yes","768","0","[0, 0, 0, 0, 0, 0, 0, 0, 0, 0, 0, 0, 0, 0, 0, 0, 0, 0, 0, 0, 0, 0, 0, 0, 0, 0]","[0, 0, 0, 0, 0, 0, 0, 0, 0, 0, 0, 0, 0, 0, 0, 0, 0, 0, 0, 0, 0, 0, 0, 0, 0, 0, 0, 0, 0, 0, 1, 1, 1, 1, 2, 3, 3, 4, 4, 4, 4, 4, 4, 4, 4, 4, 5, 7, 9, 12, 15, 18, 18, 16, 10, 1, -7, -13, -15, -17, -17, -17, -17, -17, -17, -17, -17, -17, -17, -17, -17, -16, -14, -13, -10, -9, -8, -8, -8, -8, -8, -8, -8]","[0, 0, 0, 0, 0, 0, 0, 0, 0, 0, 0, 0, 0, 0, 0, 0, 0, 0, 0, 0, 0, 0, 0, 0, 0, 0]","[0, 0, 0, 0, 0, 0, 0, 0, 0, 0, 0, 0, 0, 0, 0, 0, 0, 0, 0, 0, 0, 0, 0, 0, 0, -1, -3, -4, -6, -7, -7, -7, -7, -7, -7, -7, -7, -7, -7, -7, -7, -7, -7, -7, -7, -10, -13, -18, -26, -40, -59, -89, -124, -160, -196, -233, -265, -288, -304, -314, -321, -325, -329, -332, -335, -338, -342, -345, -348, -349, -350, -350, -350, -349, -348, -347, -347, -347, -347, -347, -347, -345, -344]"
"100","100","699.212121212","699.212121212","black","no","block1","1","legacy","legacy","w.png","r.png","w.png","w.png","1","legacy","0","relative","1","undefined","NA","red","NA","undefined","1","undefined","undefined","red","1","0","3","0","32","0","NA","32","32","32","32","32","0","32","32","32","32","0","4","NA","NA","32","0","0","0","0","0","0","0","32","11/06/20 17:40:47","Default description","yes","simont_HV.osexp","C:\Users\admin\Desktop\채은\!MouseTracking_final","no","sans","no","18","no","black","no","yes","768","180","None","180","None","legacy","2","29","1","C:/Users/admin/Desktop/채은/!MouseTracking_final/subject-32.csv","legacy","1","1","1","Kafkaesque Koffka","3.2.6","0","red","space","NA","None","red","start","space","space","NA","NA","NA","596","26442","NA","250","596","391","2927","39665","NA","NA","NA","2","legacy","1024","2","48000","-16","experiment","32","even","legacy","red","green","blue","yellow","1","4382","NA","NA","167861","1450","NA","166508","167012","167264","166115","NA","1454","167872","168872","167012","167264","120270","NA","NA","NA","166115","159936","NA","NA","NA","NA","NA","30825","166113","[167013.0, 167023.0, 167033.0, 167043.0, 167053.0, 167063.0, 167073.0, 167083.0, 167093.0, 167103.0, 167113.0, 167123.0, 167133.0, 167143.0, 167153.0, 167163.0, 167173.0, 167183.0, 167193.0, 167203.0, 167213.0, 167223.0, 167233.0, 167243.0, 167253.0, 167263.0]","[167264.0, 167274.0, 167284.0, 167294.0, 167304.0, 167314.0, 167324.0, 167334.0, 167344.0, 167354.0, 167364.0, 167374.0, 167384.0, 167394.0, 167404.0, 167414.0, 167424.0, 167434.0, 167444.0, 167454.0, 167464.0, 167474.0, 167484.0, 167494.0, 167504.0, 167514.0, 167524.0, 167534.0, 167544.0, 167554.0, 167564.0, 167574.0, 167584.0, 167594.0, 167604.0, 167614.0, 167624.0, 167634.0, 167644.0, 167654.0, 167664.0, 167674.0, 167684.0, 167694.0, 167704.0, 167714.0, 167724.0, 167734.0, 167744.0, 167754.0, 167764.0, 167774.0, 167784.0, 167794.0, 167804.0, 167814.0, 167824.0, 167834.0, 167844.0, 167854.0, 167860]","example_experiment","33","23074","33","yes","768","1","[0, 0, 0, 0, 0, 0, 0, 0, 0, 0, 0, 0, 0, 0, 0, 0, 0, 0, 0, 0, 0, 0, 0, 0, 0, 0]","[0, 0, 0, 0, 0, 0, 0, 0, 0, 0, 0, 0, 0, 0, 0, 0, 0, 0, 0, -5, -16, -30, -46, -62, -80, -98, -118, -140, -161, -180, -196, -209, -222, -232, -241, -248, -252, -256, -258, -259, -260, -260, -260, -261, -261, -262, -262, -264, -266, -270, -276, -283, -292, -299, -307, -313, -320, -324, -328, -329, -329]","[0, 0, 0, 0, 0, 0, 0, 0, 0, 0, 0, 0, 0, 0, 0, 0, 0, 0, 0, 0, 0, 0, 0, 0, 0, 0]","[0, 0, 0, 0, 0, 0, 0, 0, 0, 0, 0, 0, 0, 0, 0, 0, 0, 0, 0, 0, 0, 0, 0, 0, -1, -3, -5, -8, -11, -13, -13, -13, -13, -13, -13, -13, -13, -13, -13, -13, -13, -13, -13, -13, -13, -13, -11, -10, -9, -8, -7, -5, -4, -2, 0, 1, 1, 2, 2, 2, 2]"
"100","100","698.941176471","698.941176471","black","no","block1","2","legacy","legacy","w.png","w.png","w.png","y.png","2","legacy","0","relative","1","undefined","NA","yellow","NA","undefined","1","undefined","undefined","yellow","4","0","3","0","33","0","NA","33","33","33","33","33","0","33","33","33","33","0","4","NA","NA","33","0","0","0","0","0","0","0","33","11/06/20 17:40:47","Default description","yes","simont_HV.osexp","C:\Users\admin\Desktop\채은\!MouseTracking_final","no","sans","no","18","no","black","no","yes","768","180","None","180","None","legacy","3","29","1","C:/Users/admin/Desktop/채은/!MouseTracking_final/subject-32.csv","legacy","2","1","1","Kafkaesque Koffka","3.2.6","0","yellow","space","NA","None","yellow","start","space","space","NA","NA","NA","690","26442","NA","250","690","271","2927","39665","NA","NA","NA","2","legacy","1024","2","48000","-16","experiment","32","even","legacy","red","green","blue","yellow","2","4382","NA","NA","170715","1450","NA","169268","169772","170024","168995","NA","1454","170733","171733","169772","170024","120270","NA","NA","NA","168994","159936","NA","NA","NA","NA","NA","30825","168993","[169773.0, 169783.0, 169793.0, 169803.0, 169813.0, 169823.0, 169833.0, 169843.0, 169853.0, 169863.0, 169873.0, 169883.0, 169893.0, 169903.0, 169913.0, 169923.0, 169933.0, 169943.0, 169953.0, 169963.0, 169973.0, 169983.0, 169993.0, 170003.0, 170013.0, 170023.0]","[170024.0, 170034.0, 170044.0, 170054.0, 170064.0, 170074.0, 170084.0, 170094.0, 170104.0, 170114.0, 170124.0, 170134.0, 170144.0, 170154.0, 170164.0, 170174.0, 170184.0, 170194.0, 170204.0, 170214.0, 170224.0, 170234.0, 170244.0, 170254.0, 170264.0, 170274.0, 170284.0, 170294.0, 170304.0, 170314.0, 170324.0, 170334.0, 170344.0, 170354.0, 170364.0, 170374.0, 170384.0, 170394.0, 170404.0, 170414.0, 170424.0, 170434.0, 170444.0, 170454.0, 170464.0, 170474.0, 170484.0, 170494.0, 170504.0, 170514.0, 170524.0, 170534.0, 170544.0, 170554.0, 170564.0, 170574.0, 170584.0, 170594.0, 170604.0, 170614.0, 170624.0, 170634.0, 170644.0, 170654.0, 170664.0, 170674.0, 170684.0, 170694.0, 170704.0, 170714.0, 170714]","example_experiment","34","23764","34","yes","768","2","[0, 0, 0, 0, 0, 0, 0, 0, 0, 0, 0, 0, 0, 0, 0, 0, 0, 0, 0, 0, 0, 0, 0, 0, 0, 0]","[0, 0, 0, 0, 0, 0, 0, 0, 0, 0, 0, 0, 0, 0, 0, 0, 0, 0, 0, -1, -1, -2, -2, -2, -2, -2, -2, -2, -1, 0, 2, 4, 7, 10, 13, 16, 19, 20, 22, 22, 22, 22, 22, 22, 22, 22, 22, 21, 21, 21, 20, 19, 18, 16, 15, 12, 10, 8, 7, 5, 4, 3, 2, 2, 2, 2, 2, 2, 2, 2, 2]","[0, 0, 0, 0, 0, 0, 0, 0, 0, 0, 0, 0, 0, 0, 0, 0, 0, 0, 0, 0, 0, 0, 0, 0, 0, 0]","[0, 0, 0, 0, 0, 0, 0, 0, 0, 0, 0, 0, 0, 0, 0, 0, 0, 0, 0, -3, -5, -5, -5, -5, -5, -5, -3, 3, 14, 30, 47, 69, 91, 114, 135, 153, 170, 184, 196, 206, 215, 224, 232, 238, 244, 248, 251, 252, 253, 254, 254, 255, 257, 258, 261, 264, 269, 275, 279, 283, 287, 292, 295, 298, 299, 300, 300, 300, 300, 300, 300]"
