"acc","accuracy","average_response_time","avg_rt","background","bidi","block","btwC","canvas_backend","clock_backend","colD","colL","colR","colU","color","color_backend","compensation","coordinates","correct","correct_answerins","correct_button_get_response_bef","correct_button_get_response_pos","correct_button_get_start_click","correct_get_response_bef","correct_get_response_pos","correct_get_start_click","correct_instructions","correct_resp","correctkey","count_answerins","count_break1","count_break3","count_correct_f","count_experiment","count_feedback","count_fixation500s","count_get_response_bef","count_get_response_pos","count_get_start_click","count_incorrect_f","count_instructions","count_iti1000","count_logger","count_present_stimulus","count_present_stimulus2","count_start_gogo","count_start_gogo_1","count_start_gogo_1_1","count_start_gogo_1_2","count_start_screen","count_stimuli1","count_stimuli2","count_stimuli3","count_stimuli4","count_stimuli5","count_stimuli6","count_stimuli_prac","count_trial","datetime","description","disable_garbage_collection","experiment_file","experiment_path","font_bold","font_family","font_italic","font_size","font_underline","foreground","form_clicks","fullscreen","height","initiation_time","initiation_time_get_response_bef","initiation_time_get_response_pos","initiation_time_get_start_click","keyboard_backend","live_row","live_row_stimuli_prac","loc","logfile","mouse_backend","n0","n1","n2","opensesame_codename","opensesame_version","repeat_cycle","response","response_answerins","response_feedback","response_get_response_bef","response_get_response_pos","response_get_start_click","response_instructions","response_start_gogo","response_start_gogo_1","response_start_gogo_1_1","response_start_gogo_1_2","response_time","response_time_answerins","response_time_feedback","response_time_get_response_bef","response_time_get_response_pos","response_time_get_start_click","response_time_instructions","response_time_start_gogo","response_time_start_gogo_1","response_time_start_gogo_1_1","response_time_start_gogo_1_2","round_decimals","sampler_backend","sound_buf_size","sound_channels","sound_freq","sound_sample_size","start","subject_nr","subject_parity","synth_backend","tar1L","tar2R","tar3U","tar4D","taskType","time_answerins","time_break1","time_break3","time_correct_f","time_experiment","time_feedback","time_fixation500s","time_get_response_bef","time_get_response_pos","time_get_start_click","time_incorrect_f","time_instructions","time_iti1000","time_logger","time_present_stimulus","time_present_stimulus2","time_start_gogo","time_start_gogo_1","time_start_gogo_1_1","time_start_gogo_1_2","time_start_screen","time_stimuli1","time_stimuli2","time_stimuli3","time_stimuli4","time_stimuli5","time_stimuli6","time_stimuli_prac","time_trial","timestamps_get_response_bef","timestamps_get_response_pos","title","total_correct","total_response_time","total_responses","uniform_coordinates","width","withC","xpos_get_response_bef","xpos_get_response_pos","ypos_get_response_bef","ypos_get_response_pos"
"100","100","1582","1582","black","no","prac","0","legacy","legacy","w.png","w.png","r.png","w.png","1","legacy","0","relative","1","undefined","NA","red","NA","undefined","1","undefined","undefined","red","1","0","3","0","0","0","NA","0","0","0","0","0","0","0","0","0","0","0","4","NA","NA","0","0","0","0","0","0","0","0","0","11/05/20 11:01:31","Default description","yes","simont_HV.osexp","C:\Users\admin\Desktop\임채은\!MouseTracking_final","no","sans","no","18","no","black","no","yes","768","0","0","0","0","legacy","0","0","2","C:/Users/admin/Desktop/임채은/!MouseTracking_final/subject-28.csv","legacy","2","0","0","Kafkaesque Koffka","3.2.6","0","red","space","NA","None","red","start","space","NA","NA","NA","NA","1582","86189","NA","250","1582","915","21629","NA","NA","NA","NA","2","legacy","1024","2","48000","-16","experiment","28","even","legacy","red","green","blue","yellow","1","23076","NA","NA","112586","1441","NA","110247","110751","111003","109329","NA","1445","112607","113607","110751","111003","NA","NA","NA","NA","109329","NA","NA","NA","NA","NA","NA","109266","109328","[110752.0, 110762.0, 110772.0, 110782.0, 110792.0, 110802.0, 110812.0, 110822.0, 110832.0, 110842.0, 110852.0, 110862.0, 110872.0, 110882.0, 110892.0, 110902.0, 110912.0, 110922.0, 110932.0, 110942.0, 110952.0, 110962.0, 110972.0, 110982.0, 110992.0, 111002.0]","[111003.0, 111013.0, 111023.0, 111033.0, 111043.0, 111053.0, 111063.0, 111073.0, 111083.0, 111093.0, 111103.0, 111113.0, 111123.0, 111133.0, 111143.0, 111153.0, 111163.0, 111173.0, 111183.0, 111193.0, 111203.0, 111213.0, 111223.0, 111233.0, 111243.0, 111253.0, 111263.0, 111273.0, 111283.0, 111293.0, 111303.0, 111313.0, 111323.0, 111333.0, 111343.0, 111353.0, 111363.0, 111373.0, 111383.0, 111393.0, 111403.0, 111413.0, 111423.0, 111433.0, 111443.0, 111453.0, 111463.0, 111473.0, 111483.0, 111493.0, 111503.0, 111513.0, 111523.0, 111533.0, 111543.0, 111553.0, 111563.0, 111573.0, 111583.0, 111593.0, 111603.0, 111613.0, 111623.0, 111633.0, 111643.0, 111653.0, 111663.0, 111673.0, 111683.0, 111693.0, 111703.0, 111713.0, 111723.0, 111733.0, 111743.0, 111753.0, 111763.0, 111773.0, 111783.0, 111793.0, 111803.0, 111813.0, 111823.0, 111833.0, 111843.0, 111853.0, 111863.0, 111873.0, 111883.0, 111893.0, 111903.0, 111913.0, 111923.0, 111933.0, 111943.0, 111953.0, 111963.0, 111973.0, 111982, 111993.0, 112003.0, 112013.0, 112023.0, 112033.0, 112043.0, 112053.0, 112063.0, 112073.0, 112083.0, 112093.0, 112103.0, 112113.0, 112123.0, 112133.0, 112143.0, 112153.0, 112163.0, 112173.0, 112183.0, 112193.0, 112203.0, 112213.0, 112223.0, 112233.0, 112243.0, 112253.0, 112263.0, 112273.0, 112283.0, 112293.0, 112303.0, 112313.0, 112323.0, 112333.0, 112343.0, 112353.0, 112363.0, 112373.0, 112383.0, 112393.0, 112403.0, 112413.0, 112423.0, 112433.0, 112443.0, 112453.0, 112463.0, 112473.0, 112483.0, 112493.0, 112503.0, 112513.0, 112523.0, 112533.0, 112543.0, 112553.0, 112563.0, 112573.0, 112583.0, 112585]","example_experiment","1","1582","1","yes","768","0","[0, 0, -1, -1, -2, -2, -3, -5, -8, -14, -21, -27, -31, -32, -32, -32, -32, -32, -32, -32, -32, -32, -31, -30, -29, -28]","[-28, -27, -26, -25, -23, -20, -17, -10, 0, 14, 33, 50, 68, 81, 92, 100, 106, 109, 109, 109, 109, 109, 109, 109, 110, 112, 115, 120, 127, 138, 148, 160, 171, 179, 183, 186, 187, 187, 187, 184, 177, 164, 146, 125, 102, 77, 51, 26, 0, -19, -35, -45, -51, -55, -56, -57, -57, -57, -58, -59, -62, -65, -69, -72, -75, -78, -80, -81, -82, -85, -89, -94, -103, -112, -120, -128, -134, -140, -146, -151, -156, -160, -162, -165, -167, -169, -171, -172, -175, -177, -179, -182, -185, -186, -187, -187, -187, -187, -187, -187, -187, -187, -187, -187, -187, -187, -187, -187, -187, -187, -187, -187, -187, -187, -187, -187, -187, -187, -187, -187, -187, -187, -187, -190, -194, -200, -208, -216, -226, -235, -243, -252, -260, -267, -273, -277, -282, -285, -289, -291, -293, -294, -294, -294, -294, -294, -294, -294, -294, -294, -294, -294, -294, -294, -294, -294, -294, -294, -294, -294]","[0, -1, -1, -2, -2, -2, -2, -3, -3, -4, -4, -4, -4, -4, -4, -4, -4, -4, -4, -4, -4, -4, -4, -4, -4, -4]","[-4, -4, -4, -4, -4, -4, -4, -4, -3, -1, 2, 4, 5, 6, 6, 7, 8, 8, 8, 8, 8, 8, 8, 8, 8, 8, 8, 9, 9, 9, 9, 9, 9, 9, 8, 7, 6, 6, 5, 5, 3, 2, 1, -2, -4, -5, -7, -9, -9, -9, -9, -9, -9, -9, -9, -9, -9, -9, -9, -9, -7, -6, -4, -3, -2, -2, -1, 0, 0, 0, 0, 0, 0, 0, 0, 0, 0, 0, -1, -1, -2, -3, -3, -3, -4, -5, -5, -5, -5, -5, -5, -5, -5, -5, -5, -5, -5, -5, -5, -5, -5, -5, -5, -5, -5, -5, -5, -5, -5, -5, -5, -5, -5, -5, -5, -5, -5, -5, -5, -5, -5, -5, -5, -5, -5, -4, -3, -3, -3, -3, -3, -3, -3, -3, -3, -3, -2, -1, -1, 0, 0, 0, 0, 0, 0, 0, 0, 0, 0, 0, 0, 0, 0, 0, 0, 0, 0, 0, 0, 0]"
"100","100","1170.5","1170.5","black","no","prac","0","legacy","legacy","w.png","w.png","w.png","b.png","1","legacy","0","relative","1","undefined","NA","blue","NA","undefined","1","undefined","undefined","blue","3","0","3","0","1","0","NA","1","1","1","1","1","0","1","1","1","1","0","4","NA","NA","1","0","0","0","0","0","0","0","1","11/05/20 11:01:31","Default description","yes","simont_HV.osexp","C:\Users\admin\Desktop\임채은\!MouseTracking_final","no","sans","no","18","no","black","no","yes","768","0","230","0","None","legacy","1","1","1","C:/Users/admin/Desktop/임채은/!MouseTracking_final/subject-28.csv","legacy","1","2","0","Kafkaesque Koffka","3.2.6","0","blue","space","NA","None","blue","start","space","NA","NA","NA","NA","759","86189","NA","250","759","753","21629","NA","NA","NA","NA","2","legacy","1024","2","48000","-16","experiment","28","even","legacy","red","green","blue","yellow","2","23076","NA","NA","116038","1441","NA","114522","115026","115278","113767","NA","1445","116057","117057","115026","115278","NA","NA","NA","NA","113767","NA","NA","NA","NA","NA","NA","109266","113766","[115027.0, 115037.0, 115047.0, 115057.0, 115067.0, 115077.0, 115087.0, 115097.0, 115107.0, 115117.0, 115127.0, 115137.0, 115147.0, 115157.0, 115167.0, 115177.0, 115187.0, 115197.0, 115207.0, 115217.0, 115227.0, 115237.0, 115247.0, 115257.0, 115267.0, 115277.0]","[115278.0, 115288.0, 115298.0, 115308.0, 115318.0, 115328.0, 115338.0, 115348.0, 115358.0, 115368.0, 115378.0, 115388.0, 115398.0, 115408.0, 115418.0, 115428.0, 115438.0, 115448.0, 115458.0, 115468.0, 115478.0, 115488.0, 115498.0, 115508.0, 115518.0, 115528.0, 115538.0, 115548.0, 115558.0, 115568.0, 115578.0, 115588.0, 115598.0, 115608.0, 115618.0, 115628.0, 115638.0, 115648.0, 115658.0, 115668.0, 115678.0, 115688.0, 115698.0, 115708.0, 115718.0, 115728.0, 115738.0, 115748.0, 115758.0, 115768.0, 115778.0, 115788.0, 115798.0, 115808.0, 115818.0, 115828.0, 115838.0, 115848.0, 115858.0, 115868.0, 115878.0, 115888.0, 115898.0, 115908.0, 115918.0, 115928.0, 115938.0, 115948.0, 115958.0, 115968.0, 115978.0, 115988.0, 115998.0, 116008.0, 116018.0, 116028.0, 116037]","example_experiment","2","2341","2","yes","768","0","[0, 0, 0, 0, 0, 0, 0, 0, 0, 0, 0, 0, 0, 0, 0, 0, 0, 0, 0, 0, 0, 0, 0, 0, 0, 0]","[0, -2, -3, -5, -6, -7, -7, -7, -7, -7, -7, -7, -8, -8, -8, -8, -7, -6, -5, -4, -2, 0, 4, 7, 10, 11, 13, 13, 15, 16, 16, 17, 17, 17, 17, 17, 16, 16, 14, 14, 13, 11, 11, 10, 9, 8, 6, 5, 3, 2, 1, 1, 1, 1, 1, 1, 1, 1, 1, 1, 1, 2, 2, 2, 3, 3, 4, 5, 5, 5, 6, 6, 6, 6, 6, 6, 6]","[0, 0, 0, 0, 0, 0, 0, 0, 0, 0, 0, 0, 0, 0, 0, 0, 0, 0, 0, 0, 0, 0, 0, 0, -1, -1]","[-1, -1, -1, 0, 1, 1, 1, 1, 1, 1, 1, 1, -1, -6, -13, -19, -26, -33, -40, -47, -55, -63, -74, -86, -102, -115, -128, -139, -148, -154, -159, -163, -167, -170, -174, -178, -183, -188, -194, -199, -204, -209, -214, -220, -226, -231, -238, -245, -251, -258, -264, -269, -273, -277, -280, -283, -286, -287, -290, -291, -294, -296, -298, -300, -302, -304, -306, -308, -310, -311, -312, -313, -314, -314, -314, -314, -314]"
"100","100","988","988","black","no","prac","2","legacy","legacy","w.png","g.png","w.png","w.png","2","legacy","0","relative","1","undefined","NA","green","NA","undefined","1","undefined","undefined","green","2","0","3","0","2","0","NA","2","2","2","2","2","0","2","2","2","2","0","4","NA","NA","2","0","0","0","0","0","0","0","2","11/05/20 11:01:31","Default description","yes","simont_HV.osexp","C:\Users\admin\Desktop\임채은\!MouseTracking_final","no","sans","no","18","no","black","no","yes","768","230","None","230","None","legacy","2","2","1","C:/Users/admin/Desktop/임채은/!MouseTracking_final/subject-28.csv","legacy","2","1","2","Kafkaesque Koffka","3.2.6","0","green","space","NA","None","green","start","space","NA","NA","NA","NA","623","86189","NA","250","623","449","21629","NA","NA","NA","NA","2","legacy","1024","2","48000","-16","experiment","28","even","legacy","red","green","blue","yellow","1","23076","NA","NA","119005","1441","NA","117628","118130","118381","117177","NA","1445","119007","120007","118130","118381","NA","NA","NA","NA","117177","NA","NA","NA","NA","NA","NA","109266","117175","[118130.0, 118140.0, 118150.0, 118160.0, 118170.0, 118180.0, 118190.0, 118200.0, 118210.0, 118220.0, 118230.0, 118240.0, 118250.0, 118260.0, 118270.0, 118280.0, 118290.0, 118300.0, 118310.0, 118320.0, 118330.0, 118340.0, 118350.0, 118360.0, 118370.0, 118380.0]","[118381.0, 118391.0, 118401.0, 118411.0, 118421.0, 118431.0, 118441.0, 118451.0, 118461.0, 118471.0, 118481.0, 118491.0, 118501.0, 118511.0, 118521.0, 118531.0, 118541.0, 118551.0, 118561.0, 118571.0, 118581.0, 118591.0, 118601.0, 118611.0, 118621.0, 118631.0, 118641.0, 118651.0, 118661.0, 118671.0, 118681.0, 118691.0, 118701.0, 118711.0, 118721.0, 118731.0, 118741.0, 118751.0, 118761.0, 118771.0, 118781.0, 118791.0, 118801.0, 118811.0, 118821.0, 118831.0, 118841.0, 118851.0, 118861.0, 118871.0, 118881.0, 118891.0, 118901.0, 118911.0, 118921.0, 118931.0, 118941.0, 118951.0, 118961.0, 118971.0, 118981.0, 118991.0, 119001.0, 119004]","example_experiment","3","2964","3","yes","768","4","[0, 0, 0, 0, 0, 0, 0, 0, 0, 0, 0, 0, 0, 0, 0, 0, 0, 0, 0, 0, 0, 0, 0, 0, 0, 0]","[0, 0, 0, 0, 0, 0, 0, 0, 0, 0, 0, 0, 0, 0, 0, 0, 0, 0, 0, 0, 0, 0, 0, 0, 2, 8, 19, 37, 59, 85, 115, 143, 174, 202, 228, 252, 272, 290, 302, 311, 315, 318, 318, 318, 318, 318, 317, 316, 316, 315, 313, 313, 312, 312, 312, 312, 312, 312, 312, 312, 312, 312, 312, 312]","[0, 0, 0, 0, 0, 0, 0, 0, 0, 0, 0, 0, 0, 0, 0, 0, 0, 0, 0, 0, 0, 0, 0, 0, 0, 0]","[0, 0, 0, 0, 0, 0, 0, 0, 0, 0, 0, 0, 0, 0, 0, 0, 0, 0, 0, 0, 0, 0, 0, 0, 0, 1, 2, 3, 5, 5, 5, 5, 5, 5, 5, 5, 5, 5, 5, 6, 6, 6, 6, 6, 6, 6, 6, 5, 5, 5, 5, 5, 5, 5, 5, 5, 5, 5, 5, 5, 4, 4, 4, 4]"
"100","100","931.75","931.75","black","no","prac","3","legacy","legacy","w.png","w.png","w.png","b.png","1","legacy","0","relative","1","undefined","NA","blue","NA","undefined","1","undefined","undefined","blue","3","0","3","0","3","0","NA","3","3","3","3","3","0","3","3","3","3","0","4","NA","NA","3","0","0","0","0","0","0","0","3","11/05/20 11:01:31","Default description","yes","simont_HV.osexp","C:\Users\admin\Desktop\임채은\!MouseTracking_final","no","sans","no","18","no","black","no","yes","768","270","None","270","None","legacy","3","3","1","C:/Users/admin/Desktop/임채은/!MouseTracking_final/subject-28.csv","legacy","1","2","1","Kafkaesque Koffka","3.2.6","0","blue","space","NA","None","blue","start","space","NA","NA","NA","NA","763","86189","NA","250","763","701","21629","NA","NA","NA","NA","2","legacy","1024","2","48000","-16","experiment","28","even","legacy","red","green","blue","yellow","2","23076","NA","NA","122355","1441","NA","120835","121339","121591","120132","NA","1445","122357","123357","121339","121591","NA","NA","NA","NA","120132","NA","NA","NA","NA","NA","NA","109266","120130","[121340.0, 121350.0, 121360.0, 121370.0, 121380.0, 121390.0, 121400.0, 121410.0, 121420.0, 121430.0, 121440.0, 121450.0, 121460.0, 121470.0, 121480.0, 121490.0, 121500.0, 121510.0, 121520.0, 121530.0, 121540.0, 121550.0, 121560.0, 121570.0, 121580.0, 121590.0]","[121591.0, 121601.0, 121611.0, 121621.0, 121631.0, 121641.0, 121651.0, 121661.0, 121671.0, 121681.0, 121691.0, 121701.0, 121711.0, 121721.0, 121731.0, 121741.0, 121751.0, 121761.0, 121771.0, 121781.0, 121791.0, 121801.0, 121811.0, 121821.0, 121831.0, 121841.0, 121851.0, 121861.0, 121871.0, 121881.0, 121891.0, 121901.0, 121911.0, 121921.0, 121931.0, 121941.0, 121951.0, 121961.0, 121971.0, 121981.0, 121991.0, 122001.0, 122011.0, 122021.0, 122031.0, 122041.0, 122051.0, 122061.0, 122071.0, 122081.0, 122091.0, 122101.0, 122111.0, 122121.0, 122131.0, 122141.0, 122151.0, 122161.0, 122171.0, 122181.0, 122191.0, 122201.0, 122211.0, 122221.0, 122231.0, 122241.0, 122251.0, 122261.0, 122271.0, 122281.0, 122291.0, 122301.0, 122311.0, 122321.0, 122331.0, 122341.0, 122351.0, 122354]","example_experiment","4","3727","4","yes","768","1","[0, 0, 0, 0, 0, 0, 0, 0, 0, 0, 0, 0, 0, 0, 0, 0, 0, 0, 0, 0, 0, 0, 0, 0, 0, 0]","[0, 0, 0, 0, 0, 0, 0, 0, 0, 0, 0, 0, 0, 0, 0, 0, 0, 0, 0, 0, 0, 0, 0, 0, 0, 0, 0, 0, 0, 0, 0, 0, 1, 2, 4, 7, 10, 15, 18, 20, 22, 23, 23, 23, 23, 23, 23, 23, 23, 23, 23, 22, 20, 18, 17, 15, 14, 13, 12, 11, 9, 8, 6, 4, 2, 0, -1, -2, -3, -3, -3, -3, -3, -3, -3, -3, -3, -3]","[0, 0, 0, 0, 0, 0, 0, 0, 0, 0, 0, 0, 0, 0, 0, 0, 0, 0, 0, 0, 0, 0, 0, 0, 0, 0]","[0, 0, 0, 0, 0, 0, 0, 0, 0, 0, 0, 0, 0, 0, 0, 0, 0, 0, 0, 0, 0, 0, 0, 0, 0, 0, 0, 0, -4, -8, -12, -16, -21, -26, -33, -42, -55, -70, -89, -106, -125, -141, -155, -170, -181, -190, -199, -207, -212, -218, -224, -230, -236, -240, -245, -248, -251, -254, -257, -260, -264, -268, -273, -278, -283, -289, -293, -297, -302, -305, -308, -310, -310, -311, -311, -311, -311, -311]"
"100","100","904.2","904.2","black","no","prac","1","legacy","legacy","w.png","w.png","g.png","w.png","2","legacy","0","relative","1","undefined","NA","green","NA","undefined","1","undefined","undefined","green","2","0","3","0","4","0","NA","4","4","4","4","4","0","4","4","4","4","0","4","NA","NA","4","0","0","0","0","0","0","0","4","11/05/20 11:01:31","Default description","yes","simont_HV.osexp","C:\Users\admin\Desktop\임채은\!MouseTracking_final","no","sans","no","18","no","black","no","yes","768","330","None","330","None","legacy","4","4","2","C:/Users/admin/Desktop/임채은/!MouseTracking_final/subject-28.csv","legacy","1","1","2","Kafkaesque Koffka","3.2.6","0","green","space","NA","None","green","start","space","NA","NA","NA","NA","794","86189","NA","250","794","435","21629","NA","NA","NA","NA","2","legacy","1024","2","48000","-16","experiment","28","even","legacy","red","green","blue","yellow","1","23076","NA","NA","125462","1441","NA","123912","124415","124667","123474","NA","1445","125467","126467","124415","124667","NA","NA","NA","NA","123474","NA","NA","NA","NA","NA","NA","109266","123473","[124416.0, 124426.0, 124436.0, 124446.0, 124456.0, 124466.0, 124476.0, 124486.0, 124496.0, 124506.0, 124516.0, 124526.0, 124536.0, 124546.0, 124556.0, 124566.0, 124576.0, 124586.0, 124596.0, 124606.0, 124616.0, 124626.0, 124636.0, 124646.0, 124656.0, 124666.0]","[124667.0, 124677.0, 124687.0, 124697.0, 124707.0, 124717.0, 124727.0, 124737.0, 124747.0, 124757.0, 124767.0, 124777.0, 124787.0, 124797.0, 124807.0, 124817.0, 124827.0, 124837.0, 124847.0, 124857.0, 124867.0, 124877.0, 124887.0, 124897.0, 124907.0, 124917.0, 124927.0, 124937.0, 124947.0, 124957.0, 124967.0, 124977.0, 124987.0, 124997.0, 125007.0, 125017.0, 125027.0, 125037.0, 125047.0, 125057.0, 125067.0, 125077.0, 125087.0, 125097.0, 125107.0, 125117.0, 125127.0, 125137.0, 125147.0, 125157.0, 125167.0, 125177.0, 125187.0, 125197.0, 125207.0, 125217.0, 125227.0, 125237.0, 125247.0, 125257.0, 125267.0, 125277.0, 125287.0, 125297.0, 125307.0, 125317.0, 125327.0, 125337.0, 125347.0, 125357.0, 125367.0, 125377.0, 125387.0, 125397.0, 125407.0, 125417.0, 125427.0, 125437.0, 125447.0, 125457.0, 125461]","example_experiment","5","4521","5","yes","768","3","[0, 0, 0, 0, 0, 0, 0, 0, 0, 0, 0, 0, 0, 0, 0, 0, 0, 0, 0, 0, 0, 0, 0, 0, 0, 0]","[0, 0, 0, 0, 0, 0, 0, 0, 0, 0, 0, 0, 0, 0, 0, 0, 0, 0, 0, 0, 0, 0, 0, 0, 0, 0, 0, 0, 0, 0, 0, 0, 0, 0, 2, 7, 12, 21, 33, 49, 69, 95, 127, 156, 182, 206, 225, 244, 257, 265, 271, 273, 273, 273, 273, 273, 273, 273, 274, 275, 277, 279, 280, 283, 287, 292, 299, 306, 314, 319, 324, 326, 326, 326, 326, 326, 326, 326, 326, 326, 326]","[0, 0, 0, 0, 0, 0, 0, 0, 0, 0, 0, 0, 0, 0, 0, 0, 0, 0, 0, 0, 0, 0, 0, 0, 0, 0]","[0, 0, 0, 0, 0, 0, 0, 0, 0, 0, 0, 0, 0, 0, 0, 0, 0, 0, 0, 0, 0, 0, 0, 0, 0, 0, 0, 0, 0, 0, 0, 0, 0, 0, 0, 0, 0, 0, 0, 0, -1, -1, -1, -1, -1, -1, -1, -1, -1, -1, -1, -1, -1, -1, -1, -1, -1, -1, -1, -1, -1, -1, -1, -1, -1, 0, 1, 3, 4, 5, 6, 7, 7, 7, 7, 7, 7, 7, 7, 7, 7]"
"100","100","883.166666667","883.166666667","black","no","prac","1","legacy","legacy","y.png","w.png","w.png","w.png","2","legacy","0","relative","1","undefined","NA","yellow","NA","undefined","1","undefined","undefined","yellow","4","0","3","0","5","0","NA","5","5","5","5","5","0","5","5","5","5","0","4","NA","NA","5","0","0","0","0","0","0","0","5","11/05/20 11:01:31","Default description","yes","simont_HV.osexp","C:\Users\admin\Desktop\임채은\!MouseTracking_final","no","sans","no","18","no","black","no","yes","768","330","None","330","None","legacy","5","5","2","C:/Users/admin/Desktop/임채은/!MouseTracking_final/subject-28.csv","legacy","1","1","1","Kafkaesque Koffka","3.2.6","0","yellow","space","NA","None","yellow","start","space","NA","NA","NA","NA","778","86189","NA","250","778","418","21629","NA","NA","NA","NA","2","legacy","1024","2","48000","-16","experiment","28","even","legacy","red","green","blue","yellow","2","23076","NA","NA","128556","1441","NA","127021","127525","127777","126601","NA","1445","128577","129577","127525","127777","NA","NA","NA","NA","126601","NA","NA","NA","NA","NA","NA","109266","126600","[127526.0, 127536.0, 127546.0, 127556.0, 127566.0, 127576.0, 127586.0, 127596.0, 127606.0, 127616.0, 127626.0, 127636.0, 127646.0, 127656.0, 127666.0, 127676.0, 127686.0, 127696.0, 127706.0, 127716.0, 127726.0, 127736.0, 127746.0, 127756.0, 127766.0, 127776.0]","[127777.0, 127787.0, 127797.0, 127807.0, 127817.0, 127827.0, 127837.0, 127847.0, 127857.0, 127867.0, 127877.0, 127887.0, 127897.0, 127907.0, 127917.0, 127927.0, 127937.0, 127947.0, 127957.0, 127967.0, 127977.0, 127987.0, 127997.0, 128007.0, 128017.0, 128027.0, 128037.0, 128047.0, 128057.0, 128067.0, 128077.0, 128087.0, 128097.0, 128107.0, 128117.0, 128127.0, 128137.0, 128147.0, 128157.0, 128167.0, 128177.0, 128187.0, 128197.0, 128207.0, 128217.0, 128227.0, 128237.0, 128247.0, 128257.0, 128267.0, 128277.0, 128287.0, 128297.0, 128307.0, 128317.0, 128327.0, 128337.0, 128347.0, 128357.0, 128367.0, 128377.0, 128387.0, 128397.0, 128407.0, 128417.0, 128427.0, 128437.0, 128447.0, 128457.0, 128467.0, 128477.0, 128487.0, 128497.0, 128507.0, 128517.0, 128527.0, 128537.0, 128547.0, 128555]","example_experiment","6","5299","6","yes","768","1","[0, 0, 0, 0, 0, 0, 0, 0, 0, 0, 0, 0, 0, 0, 0, 0, 0, 0, 0, 0, 0, 0, 0, 0, 0, 0]","[0, 0, 0, 0, 0, 0, 0, 0, 0, 0, 0, 0, 0, 0, 0, 0, 0, 0, 0, 0, 0, 0, 0, 0, 0, 0, 0, 0, 0, 0, 0, 0, 0, 0, 0, 0, -1, -1, 0, 3, 6, 8, 10, 11, 12, 12, 12, 13, 14, 15, 15, 16, 16, 16, 17, 17, 17, 17, 17, 16, 16, 15, 15, 14, 13, 12, 10, 9, 9, 8, 8, 7, 7, 7, 6, 6, 6, 6, 6]","[0, 0, 0, 0, 0, 0, 0, 0, 0, 0, 0, 0, 0, 0, 0, 0, 0, 0, 0, 0, 0, 0, 0, 0, 0, 0]","[0, 0, 0, 0, 0, 0, 0, 0, 0, 0, 0, 0, 0, 0, 0, 0, 0, 0, 0, 0, 0, 0, 0, 0, 0, 0, 0, 0, 0, 0, 0, 0, 0, 0, 1, 5, 12, 24, 39, 61, 85, 110, 133, 152, 172, 184, 195, 204, 210, 214, 216, 217, 219, 220, 222, 224, 226, 229, 234, 239, 244, 250, 255, 261, 269, 276, 284, 290, 296, 299, 301, 303, 305, 308, 310, 312, 313, 314, 314]"
"100","100","839","839","black","no","prac","2","legacy","legacy","w.png","w.png","r.png","w.png","1","legacy","0","relative","1","undefined","NA","red","NA","undefined","1","undefined","undefined","red","1","0","3","0","6","0","NA","6","6","6","6","6","0","6","6","6","6","0","4","NA","NA","6","0","0","0","0","0","0","0","6","11/05/20 11:01:31","Default description","yes","simont_HV.osexp","C:\Users\admin\Desktop\임채은\!MouseTracking_final","no","sans","no","18","no","black","no","yes","768","240","None","240","None","legacy","6","6","2","C:/Users/admin/Desktop/임채은/!MouseTracking_final/subject-28.csv","legacy","2","1","1","Kafkaesque Koffka","3.2.6","0","red","space","NA","None","red","start","space","NA","NA","NA","NA","574","86189","NA","250","574","395","21629","NA","NA","NA","NA","2","legacy","1024","2","48000","-16","experiment","28","even","legacy","red","green","blue","yellow","1","23076","NA","NA","131406","1441","NA","130075","130579","130831","129678","NA","1445","131417","132417","130579","130831","NA","NA","NA","NA","129678","NA","NA","NA","NA","NA","NA","109266","129676","[130580.0, 130590.0, 130600.0, 130610.0, 130620.0, 130630.0, 130640.0, 130650.0, 130660.0, 130670.0, 130680.0, 130690.0, 130700.0, 130710.0, 130720.0, 130730.0, 130740.0, 130750.0, 130760.0, 130770.0, 130780.0, 130790.0, 130800.0, 130810.0, 130820.0, 130830.0]","[130831.0, 130841.0, 130851.0, 130861.0, 130871.0, 130881.0, 130891.0, 130901.0, 130911.0, 130921.0, 130931.0, 130941.0, 130951.0, 130961.0, 130971.0, 130981.0, 130991.0, 131001.0, 131011.0, 131021.0, 131031.0, 131041.0, 131051.0, 131061.0, 131071.0, 131081.0, 131091.0, 131101.0, 131111.0, 131121.0, 131131.0, 131141.0, 131151.0, 131161.0, 131171.0, 131181.0, 131191.0, 131201.0, 131211.0, 131221.0, 131231.0, 131241.0, 131251.0, 131261.0, 131271.0, 131281.0, 131291.0, 131301.0, 131311.0, 131321.0, 131331.0, 131341.0, 131351.0, 131361.0, 131371.0, 131381.0, 131391.0, 131401.0, 131405]","example_experiment","7","5873","7","yes","768","2","[0, 0, 0, 0, 0, 0, 0, 0, 0, 0, 0, 0, 0, 0, 0, 0, 0, 0, 0, 0, 0, 0, 0, 0, 0, 0]","[0, 0, 0, 0, 0, 0, 0, 0, 0, 0, 0, 0, 0, 0, 0, 0, 0, 0, 0, 0, 0, 0, 0, 0, 0, -2, -7, -15, -27, -47, -69, -97, -128, -159, -189, -218, -243, -264, -281, -294, -303, -307, -309, -309, -309, -309, -309, -309, -309, -309, -309, -309, -309, -309, -309, -309, -309, -309, -309]","[0, 0, 0, 0, 0, 0, 0, 0, 0, 0, 0, 0, 0, 0, 0, 0, 0, 0, 0, 0, 0, 0, 0, 0, 0, 0]","[0, 0, 0, 0, 0, 0, 0, 0, 0, 0, 0, 0, 0, 0, 0, 0, 0, 0, 0, 0, 0, 0, 0, 0, 0, 0, 1, 1, 1, 1, 1, 1, 1, 1, 1, 1, 1, 1, 2, 2, 2, 2, 2, 2, 2, 2, 2, 2, 2, 2, 2, 2, 2, 2, 2, 2, 2, 2, 2]"
"100","100","830.125","830.125","black","no","prac","4","legacy","legacy","w.png","w.png","w.png","y.png","2","legacy","0","relative","1","undefined","NA","yellow","NA","undefined","1","undefined","undefined","yellow","4","0","3","0","7","0","NA","7","7","7","7","7","0","7","7","7","7","0","4","NA","NA","7","0","0","0","0","0","0","0","7","11/05/20 11:01:31","Default description","yes","simont_HV.osexp","C:\Users\admin\Desktop\임채은\!MouseTracking_final","no","sans","no","18","no","black","no","yes","768","380","None","380","None","legacy","7","7","1","C:/Users/admin/Desktop/임채은/!MouseTracking_final/subject-28.csv","legacy","2","2","1","Kafkaesque Koffka","3.2.6","0","yellow","space","NA","None","yellow","start","space","NA","NA","NA","NA","768","86189","NA","250","768","287","21629","NA","NA","NA","NA","2","legacy","1024","2","48000","-16","experiment","28","even","legacy","red","green","blue","yellow","2","23076","NA","NA","134363","1441","NA","132838","133342","133594","132549","NA","1445","134367","135367","133342","133594","NA","NA","NA","NA","132549","NA","NA","NA","NA","NA","NA","109266","132548","[133343.0, 133353.0, 133363.0, 133373.0, 133383.0, 133393.0, 133403.0, 133413.0, 133423.0, 133433.0, 133443.0, 133453.0, 133463.0, 133473.0, 133483.0, 133493.0, 133503.0, 133513.0, 133523.0, 133533.0, 133543.0, 133553.0, 133563.0, 133573.0, 133583.0, 133593.0]","[133594.0, 133604.0, 133614.0, 133624.0, 133634.0, 133644.0, 133654.0, 133664.0, 133674.0, 133684.0, 133694.0, 133704.0, 133714.0, 133724.0, 133734.0, 133744.0, 133754.0, 133764.0, 133774.0, 133784.0, 133794.0, 133804.0, 133814.0, 133824.0, 133834.0, 133844.0, 133854.0, 133864.0, 133874.0, 133884.0, 133894.0, 133904.0, 133914.0, 133924.0, 133934.0, 133944.0, 133954.0, 133964.0, 133974.0, 133984.0, 133994.0, 134004.0, 134014.0, 134024.0, 134034.0, 134044.0, 134054.0, 134064.0, 134074.0, 134084.0, 134094.0, 134104.0, 134114.0, 134124.0, 134134.0, 134144.0, 134154.0, 134164.0, 134174.0, 134184.0, 134194.0, 134204.0, 134214.0, 134224.0, 134234.0, 134244.0, 134254.0, 134264.0, 134274.0, 134284.0, 134294.0, 134304.0, 134314.0, 134324.0, 134334.0, 134344.0, 134354.0, 134362]","example_experiment","8","6641","8","yes","768","2","[0, 0, 0, 0, 0, 0, 0, 0, 0, 0, 0, 0, 0, 0, 0, 0, 0, 0, 0, 0, 0, 0, 0, 0, 0, 0]","[0, 0, 0, 0, 0, 0, 0, 0, 0, 0, 0, 0, 0, 0, 0, 0, 0, 0, 0, 0, 0, 0, 0, 0, 0, 0, 0, 0, 0, 0, 0, 0, 0, 0, 0, 0, 0, 0, 0, 0, -1, -3, -5, -7, -8, -8, -8, -7, -6, -5, -5, -5, -5, -5, -4, -3, -3, -3, -3, -3, -3, -3, -3, -3, -3, -3, -3, -3, -3, -3, -3, -3, -3, -3, -2, -1, -1, -1]","[0, 0, 0, 0, 0, 0, 0, 0, 0, 0, 0, 0, 0, 0, 0, 0, 0, 0, 0, 0, 0, 0, 0, 0, 0, 0]","[0, 0, 0, 0, 0, 0, 0, 0, 0, 0, 0, 0, 0, 0, 0, 0, 0, 0, 0, 0, 0, 0, 0, 0, 0, 0, 0, 0, 0, 0, 0, 0, 0, 0, 0, 0, 0, 0, 0, 2, 8, 17, 30, 49, 72, 96, 129, 166, 197, 224, 243, 256, 263, 269, 273, 276, 279, 281, 283, 284, 285, 286, 286, 287, 290, 293, 297, 300, 301, 302, 303, 304, 307, 310, 314, 317, 321, 322]"
"100","100","806.777777778","806.777777778","black","no","prac","3","legacy","legacy","w.png","r.png","w.png","w.png","1","legacy","0","relative","1","undefined","NA","red","NA","undefined","1","undefined","undefined","red","1","0","3","0","8","0","NA","8","8","8","8","8","0","8","8","8","8","0","4","NA","NA","8","0","0","0","0","0","0","0","8","11/05/20 11:01:31","Default description","yes","simont_HV.osexp","C:\Users\admin\Desktop\임채은\!MouseTracking_final","no","sans","no","18","no","black","no","yes","768","230","None","230","None","legacy","8","8","1","C:/Users/admin/Desktop/임채은/!MouseTracking_final/subject-28.csv","legacy","1","2","2","Kafkaesque Koffka","3.2.6","0","red","space","NA","None","red","start","space","NA","NA","NA","NA","620","86189","NA","250","620","357","21629","NA","NA","NA","NA","2","legacy","1024","2","48000","-16","experiment","28","even","legacy","red","green","blue","yellow","1","23076","NA","NA","137208","1441","NA","135833","136335","136587","135473","NA","1445","137218","138218","136335","136587","NA","NA","NA","NA","135473","NA","NA","NA","NA","NA","NA","109266","135472","[136336.0, 136346.0, 136356.0, 136366.0, 136376.0, 136386.0, 136396.0, 136406.0, 136416.0, 136426.0, 136436.0, 136446.0, 136456.0, 136466.0, 136476.0, 136486.0, 136496.0, 136506.0, 136516.0, 136526.0, 136536.0, 136546.0, 136556.0, 136566.0, 136576.0, 136586.0]","[136587.0, 136597.0, 136607.0, 136617.0, 136627.0, 136637.0, 136647.0, 136657.0, 136667.0, 136677.0, 136687.0, 136697.0, 136707.0, 136717.0, 136727.0, 136737.0, 136747.0, 136757.0, 136767.0, 136777.0, 136787.0, 136797.0, 136807.0, 136817.0, 136827.0, 136837.0, 136847.0, 136857.0, 136867.0, 136877.0, 136887.0, 136897.0, 136907.0, 136917.0, 136927.0, 136937.0, 136947.0, 136957.0, 136967.0, 136977.0, 136987.0, 136997.0, 137007.0, 137017.0, 137027.0, 137037.0, 137047.0, 137057.0, 137067.0, 137077.0, 137087.0, 137097.0, 137107.0, 137117.0, 137127.0, 137137.0, 137147.0, 137157.0, 137167.0, 137177.0, 137187.0, 137197.0, 137207.0, 137207]","example_experiment","9","7261","9","yes","768","3","[0, 0, 0, 0, 0, 0, 0, 0, 0, 0, 0, 0, 0, 0, 0, 0, 0, 0, 0, 0, 0, 0, 0, 0, 0, 0]","[0, 0, 0, 0, 0, 0, 0, 0, 0, 0, 0, 0, 0, 0, 0, 0, 0, 0, 0, 0, 0, 0, 0, 0, -1, -6, -14, -27, -44, -67, -93, -124, -157, -192, -226, -255, -280, -300, -315, -328, -335, -338, -338, -338, -338, -338, -338, -338, -338, -337, -337, -336, -335, -335, -335, -335, -335, -335, -335, -335, -335, -335, -335, -335]","[0, 0, 0, 0, 0, 0, 0, 0, 0, 0, 0, 0, 0, 0, 0, 0, 0, 0, 0, 0, 0, 0, 0, 0, 0, 0]","[0, 0, 0, 0, 0, 0, 0, 0, 0, 0, 0, 0, 0, 0, 0, 0, 0, 0, 0, 0, 0, 0, 0, 0, 0, 0, 2, 3, 4, 7, 8, 10, 12, 12, 12, 13, 13, 13, 13, 13, 13, 12, 12, 12, 12, 12, 11, 11, 11, 10, 10, 9, 9, 9, 9, 9, 9, 9, 9, 9, 9, 9, 9, 9]"
"100","100","783.5","783.5","black","no","prac","1","legacy","legacy","y.png","w.png","w.png","w.png","2","legacy","0","relative","1","undefined","NA","yellow","NA","undefined","1","undefined","undefined","yellow","4","0","3","0","9","0","NA","9","9","9","9","9","0","9","9","9","9","0","4","NA","NA","9","0","0","0","0","0","0","0","9","11/05/20 11:01:31","Default description","yes","simont_HV.osexp","C:\Users\admin\Desktop\임채은\!MouseTracking_final","no","sans","no","18","no","black","no","yes","768","170","None","170","None","legacy","9","9","2","C:/Users/admin/Desktop/임채은/!MouseTracking_final/subject-28.csv","legacy","1","1","2","Kafkaesque Koffka","3.2.6","0","yellow","space","NA","None","yellow","start","space","NA","NA","NA","NA","574","86189","NA","250","574","343","21629","NA","NA","NA","NA","2","legacy","1024","2","48000","-16","experiment","28","even","legacy","red","green","blue","yellow","2","23076","NA","NA","140006","1441","NA","138676","139180","139431","138331","NA","1445","140017","141017","139180","139431","NA","NA","NA","NA","138331","NA","NA","NA","NA","NA","NA","109266","138329","[139180.0, 139191.0, 139201.0, 139211.0, 139221.0, 139231.0, 139241.0, 139251.0, 139261.0, 139271.0, 139281.0, 139291.0, 139301.0, 139311.0, 139321.0, 139331.0, 139341.0, 139351.0, 139361.0, 139371.0, 139381.0, 139391.0, 139401.0, 139411.0, 139421.0, 139430.0]","[139431.0, 139441.0, 139451.0, 139461.0, 139471.0, 139481.0, 139491.0, 139501.0, 139511.0, 139521.0, 139531.0, 139541.0, 139551.0, 139561.0, 139571.0, 139581.0, 139591.0, 139601.0, 139611.0, 139621.0, 139631.0, 139641.0, 139651.0, 139661.0, 139671.0, 139681.0, 139691.0, 139701.0, 139711.0, 139721.0, 139731.0, 139741.0, 139751.0, 139761.0, 139771.0, 139781.0, 139791.0, 139801.0, 139811.0, 139821.0, 139831.0, 139841.0, 139851.0, 139861.0, 139871.0, 139881.0, 139891.0, 139901.0, 139911.0, 139921.0, 139931.0, 139941.0, 139951.0, 139961.0, 139971.0, 139981.0, 139991.0, 140001.0, 140005]","example_experiment","10","7835","10","yes","768","3","[0, 0, 0, 0, 0, 0, 0, 0, 0, 0, 0, 0, 0, 0, 0, 0, 0, 0, 0, 0, 0, 0, 0, 0, 0, 0]","[0, 0, 0, 0, 0, 0, 0, 0, 0, 0, 0, 0, 0, 0, 0, 0, 0, 0, 0, 0, -2, -6, -9, -12, -12, -12, -12, -13, -15, -17, -19, -21, -21, -21, -21, -21, -21, -21, -21, -21, -21, -21, -21, -21, -21, -21, -20, -20, -19, -19, -18, -15, -12, -10, -9, -8, -7, -7, -7]","[0, 0, 0, 0, 0, 0, 0, 0, 0, 0, 0, 0, 0, 0, 0, 0, 0, 0, 0, 0, 0, 0, 0, 0, 0, 0]","[0, 0, 0, 0, 0, 0, 0, 0, 0, 0, 0, 0, 0, 0, 0, 0, 0, 0, 1, 5, 16, 33, 61, 87, 117, 142, 164, 183, 198, 211, 224, 236, 246, 254, 259, 263, 265, 268, 270, 273, 275, 276, 277, 278, 280, 284, 287, 290, 293, 294, 297, 300, 303, 306, 309, 311, 312, 313, 313]"
"100","100","778.636363636","778.636363636","black","no","prac","1","legacy","legacy","w.png","w.png","g.png","w.png","2","legacy","0","relative","1","undefined","NA","green","NA","undefined","1","undefined","undefined","green","2","0","3","0","10","0","NA","10","10","10","10","10","0","10","10","10","10","0","4","NA","NA","10","0","0","0","0","0","0","0","10","11/05/20 11:01:31","Default description","yes","simont_HV.osexp","C:\Users\admin\Desktop\임채은\!MouseTracking_final","no","sans","no","18","no","black","no","yes","768","310","None","310","None","legacy","10","10","2","C:/Users/admin/Desktop/임채은/!MouseTracking_final/subject-28.csv","legacy","1","1","1","Kafkaesque Koffka","3.2.6","0","green","space","NA","None","green","start","space","NA","NA","NA","NA","730","86189","NA","250","730","315","21629","NA","NA","NA","NA","2","legacy","1024","2","48000","-16","experiment","28","even","legacy","red","green","blue","yellow","1","23076","NA","NA","142966","1441","NA","141479","141983","142235","141162","NA","1445","142977","143977","141983","142235","NA","NA","NA","NA","141162","NA","NA","NA","NA","NA","NA","109266","141161","[141984.0, 141994.0, 142004.0, 142014.0, 142024.0, 142034.0, 142044.0, 142054.0, 142064.0, 142074.0, 142084.0, 142094.0, 142104.0, 142114.0, 142124.0, 142134.0, 142144.0, 142154.0, 142164.0, 142174.0, 142184.0, 142194.0, 142204.0, 142214.0, 142224.0, 142234.0]","[142235.0, 142245.0, 142255.0, 142265.0, 142275.0, 142285.0, 142295.0, 142305.0, 142315.0, 142325.0, 142335.0, 142345.0, 142355.0, 142365.0, 142375.0, 142385.0, 142395.0, 142405.0, 142415.0, 142425.0, 142435.0, 142445.0, 142455.0, 142465.0, 142475.0, 142485.0, 142495.0, 142505.0, 142515.0, 142525.0, 142535.0, 142545.0, 142555.0, 142565.0, 142575.0, 142585.0, 142595.0, 142605.0, 142615.0, 142625.0, 142635.0, 142645.0, 142655.0, 142665.0, 142675.0, 142685.0, 142695.0, 142705.0, 142715.0, 142725.0, 142735.0, 142745.0, 142755.0, 142765.0, 142775.0, 142785.0, 142795.0, 142805.0, 142815.0, 142825.0, 142835.0, 142845.0, 142855.0, 142865.0, 142875.0, 142885.0, 142895.0, 142905.0, 142915.0, 142925.0, 142935.0, 142945.0, 142955.0, 142965.0, 142965]","example_experiment","11","8565","11","yes","768","1","[0, 0, 0, 0, 0, 0, 0, 0, 0, 0, 0, 0, 0, 0, 0, 0, 0, 0, 0, 0, 0, 0, 0, 0, 0, 0]","[0, 0, 0, 0, 0, 0, 0, 0, 0, 0, 0, 0, 0, 0, 0, 0, 0, 0, 0, 0, 0, 0, 0, 0, 0, 0, 0, 0, 0, 0, 0, 0, 3, 9, 17, 24, 36, 50, 68, 91, 119, 145, 169, 187, 202, 212, 221, 227, 231, 235, 238, 240, 241, 243, 245, 247, 249, 252, 256, 260, 264, 269, 274, 278, 282, 284, 286, 288, 290, 290, 291, 291, 291, 292, 292]","[0, 0, 0, 0, 0, 0, 0, 0, 0, 0, 0, 0, 0, 0, 0, 0, 0, 0, 0, 0, 0, 0, 0, 0, 0, 0]","[0, 0, 0, 0, 0, 0, 0, 0, 0, 0, 0, 0, 0, 0, 0, 0, 0, 0, 0, 0, 0, 0, 0, 0, 0, 0, 0, 0, 0, 0, 0, 0, 0, -1, -1, -1, -2, -2, -2, -2, -1, 0, 1, 1, 1, 1, 1, 1, 1, 2, 3, 3, 3, 3, 3, 2, 1, 1, 0, 0, 0, 0, 0, 1, 2, 3, 3, 4, 4, 4, 4, 4, 4, 5, 5]"
"100","100","797.75","797.75","black","no","prac","1","legacy","legacy","w.png","w.png","w.png","b.png","1","legacy","0","relative","1","undefined","NA","blue","NA","undefined","1","undefined","undefined","blue","3","0","3","0","11","0","NA","11","11","11","11","11","0","11","11","11","11","0","4","NA","NA","11","0","0","0","0","0","0","0","11","11/05/20 11:01:31","Default description","yes","simont_HV.osexp","C:\Users\admin\Desktop\임채은\!MouseTracking_final","no","sans","no","18","no","black","no","yes","768","640","None","640","None","legacy","11","11","1","C:/Users/admin/Desktop/임채은/!MouseTracking_final/subject-28.csv","legacy","1","1","1","Kafkaesque Koffka","3.2.6","0","blue","space","NA","None","blue","start","space","NA","NA","NA","NA","1008","86189","NA","250","1008","289","21629","NA","NA","NA","NA","2","legacy","1024","2","48000","-16","experiment","28","even","legacy","red","green","blue","yellow","2","23076","NA","NA","146151","1441","NA","144386","144890","145142","144094","NA","1445","146157","147157","144890","145142","NA","NA","NA","NA","144094","NA","NA","NA","NA","NA","NA","109266","144093","[144891.0, 144901.0, 144911.0, 144921.0, 144931.0, 144941.0, 144951.0, 144961.0, 144971.0, 144981.0, 144991.0, 145001.0, 145011.0, 145021.0, 145031.0, 145041.0, 145051.0, 145061.0, 145071.0, 145081.0, 145091.0, 145101.0, 145111.0, 145121.0, 145131.0, 145141.0]","[145142.0, 145152.0, 145162.0, 145172.0, 145182.0, 145192.0, 145202.0, 145212.0, 145222.0, 145232.0, 145242.0, 145252.0, 145262.0, 145272.0, 145282.0, 145292.0, 145302.0, 145312.0, 145322.0, 145332.0, 145342.0, 145352.0, 145362.0, 145372.0, 145382.0, 145392.0, 145402.0, 145412.0, 145422.0, 145432.0, 145442.0, 145452.0, 145462.0, 145472.0, 145482.0, 145492.0, 145502.0, 145512.0, 145522.0, 145532.0, 145542.0, 145552.0, 145562.0, 145572.0, 145582.0, 145592.0, 145602.0, 145612.0, 145622.0, 145632.0, 145642.0, 145652.0, 145662.0, 145672.0, 145682.0, 145692.0, 145702.0, 145712.0, 145722.0, 145732.0, 145742.0, 145752.0, 145762.0, 145772.0, 145782.0, 145792.0, 145802.0, 145812.0, 145822.0, 145832.0, 145842.0, 145852.0, 145862.0, 145872.0, 145882.0, 145892.0, 145902.0, 145912.0, 145922.0, 145932.0, 145942.0, 145952.0, 145962.0, 145972.0, 145982.0, 145992.0, 146002.0, 146012.0, 146022.0, 146032.0, 146042.0, 146052.0, 146062.0, 146072.0, 146082.0, 146092.0, 146102.0, 146112.0, 146122.0, 146132.0, 146142.0, 146150]","example_experiment","12","9573","12","yes","768","1","[0, 0, 0, 0, 0, 0, 0, 0, 0, 0, 0, 0, 0, 0, 0, 0, 0, 0, 0, 0, 0, 0, 0, 0, 0, 0]","[0, 0, 0, 0, 0, 0, 0, 0, 0, 0, 0, 0, 0, 0, 0, 0, 0, 0, 0, 0, 0, 0, 0, 0, 0, 0, 0, 0, 0, 0, 0, 0, 0, 0, 0, 0, 0, 0, 0, 0, 0, 0, 0, 0, 0, 0, 0, 0, 0, 0, 0, 0, 0, 0, 0, 0, 0, 0, 0, 0, 0, 0, 0, 0, 0, 0, 0, 0, 0, 0, -1, -2, -4, -5, -6, -7, -7, -9, -9, -10, -10, -10, -10, -9, -9, -8, -7, -6, -6, -4, -4, -3, -2, 0, 1, 3, 4, 4, 5, 5, 5, 5]","[0, 0, 0, 0, 0, 0, 0, 0, 0, 0, 0, 0, 0, 0, 0, 0, 0, 0, 0, 0, 0, 0, 0, 0, 0, 0]","[0, 0, 0, 0, 0, 0, 0, 0, 0, 0, 0, 0, 0, 0, 0, 0, 0, 0, 0, 0, 0, 0, 0, 0, 0, 0, 0, 0, 0, 0, 0, 0, 0, 0, 0, 0, 0, 0, 0, 0, 0, 0, 0, 0, 0, 0, 0, 0, 0, 0, 0, 0, 0, 0, 0, 0, 0, 0, 0, 0, 0, 0, 0, 0, 0, -4, -13, -27, -50, -77, -104, -129, -148, -168, -182, -197, -209, -220, -229, -236, -242, -247, -251, -255, -257, -260, -263, -266, -268, -270, -273, -277, -280, -285, -289, -294, -299, -302, -304, -305, -306, -306]"
"100","100","776.769230769","776.769230769","black","no","prac","1","legacy","legacy","w.png","r.png","w.png","w.png","1","legacy","0","relative","1","undefined","NA","red","NA","undefined","1","undefined","undefined","red","1","0","3","0","12","0","NA","12","12","12","12","12","0","12","12","12","12","0","4","NA","NA","12","0","0","0","0","0","0","0","12","11/05/20 11:01:31","Default description","yes","simont_HV.osexp","C:\Users\admin\Desktop\임채은\!MouseTracking_final","no","sans","no","18","no","black","no","yes","768","160","None","160","None","legacy","12","12","1","C:/Users/admin/Desktop/임채은/!MouseTracking_final/subject-28.csv","legacy","1","1","1","Kafkaesque Koffka","3.2.6","0","red","space","NA","None","red","start","space","NA","NA","NA","NA","525","86189","NA","250","525","506","21629","NA","NA","NA","NA","2","legacy","1024","2","48000","-16","experiment","28","even","legacy","red","green","blue","yellow","1","23076","NA","NA","149071","1441","NA","147789","148293","148545","147281","NA","1445","149087","150087","148293","148545","NA","NA","NA","NA","147280","NA","NA","NA","NA","NA","NA","109266","147279","[148294.0, 148304.0, 148314.0, 148324.0, 148334.0, 148344.0, 148354.0, 148364.0, 148374.0, 148384.0, 148394.0, 148404.0, 148414.0, 148424.0, 148434.0, 148444.0, 148454.0, 148464.0, 148474.0, 148484.0, 148494.0, 148504.0, 148514.0, 148524.0, 148534.0, 148544.0]","[148545.0, 148555.0, 148565.0, 148575.0, 148585.0, 148595.0, 148605.0, 148615.0, 148625.0, 148635.0, 148645.0, 148655.0, 148665.0, 148675.0, 148685.0, 148695.0, 148705.0, 148715.0, 148725.0, 148735.0, 148745.0, 148755.0, 148765.0, 148775.0, 148785.0, 148795.0, 148805.0, 148815.0, 148825.0, 148835.0, 148845.0, 148855.0, 148865.0, 148875.0, 148885.0, 148895.0, 148905.0, 148915.0, 148925.0, 148935.0, 148945.0, 148955.0, 148965.0, 148975.0, 148985.0, 148995.0, 149005.0, 149015.0, 149025.0, 149035.0, 149045.0, 149055.0, 149065.0, 149070]","example_experiment","13","10098","13","yes","768","1","[0, 0, 0, 0, 0, 0, 0, 0, 0, 0, 0, 0, 0, 0, 0, 0, 0, 0, 0, 0, 0, 0, 0, 0, 0, 0]","[0, 0, 0, 0, 0, 0, 0, 0, 0, 0, 0, 0, 0, 0, 0, 0, 0, -2, -6, -13, -23, -37, -56, -76, -102, -127, -158, -183, -205, -226, -241, -255, -267, -276, -282, -287, -289, -292, -294, -296, -296, -297, -297, -298, -299, -300, -303, -306, -310, -313, -314, -314, -314, -314]","[0, 0, 0, 0, 0, 0, 0, 0, 0, 0, 0, 0, 0, 0, 0, 0, 0, 0, 0, 0, 0, 0, 0, 0, 0, 0]","[0, 0, 0, 0, 0, 0, 0, 0, 0, 0, 0, 0, 0, 0, 0, 0, 0, 1, 2, 2, 3, 4, 5, 5, 5, 5, 5, 5, 5, 5, 5, 5, 5, 5, 5, 4, 3, 3, 3, 3, 3, 3, 3, 3, 3, 2, 2, 2, 2, 2, 2, 2, 2, 2]"
"100","100","768.785714286","768.785714286","black","no","prac","2","legacy","legacy","w.png","w.png","w.png","y.png","2","legacy","0","relative","1","undefined","NA","yellow","NA","undefined","1","undefined","undefined","yellow","4","0","3","0","13","0","NA","13","13","13","13","13","0","13","13","13","13","0","4","NA","NA","13","0","0","0","0","0","0","0","13","11/05/20 11:01:31","Default description","yes","simont_HV.osexp","C:\Users\admin\Desktop\임채은\!MouseTracking_final","no","sans","no","18","no","black","no","yes","768","270","None","270","None","legacy","13","13","1","C:/Users/admin/Desktop/임채은/!MouseTracking_final/subject-28.csv","legacy","2","1","1","Kafkaesque Koffka","3.2.6","0","yellow","space","NA","None","yellow","start","space","NA","NA","NA","NA","665","86189","NA","250","665","443","21629","NA","NA","NA","NA","2","legacy","1024","2","48000","-16","experiment","28","even","legacy","red","green","blue","yellow","2","23076","NA","NA","152067","1441","NA","150646","151150","151401","150200","NA","1445","152087","153087","151149","151401","NA","NA","NA","NA","150200","NA","NA","NA","NA","NA","NA","109266","150199","[151150.0, 151160.0, 151170.0, 151180.0, 151190.0, 151200.0, 151210.0, 151220.0, 151230.0, 151240.0, 151250.0, 151260.0, 151270.0, 151280.0, 151290.0, 151300.0, 151310.0, 151320.0, 151330.0, 151340.0, 151350.0, 151360.0, 151370.0, 151380.0, 151390.0, 151400.0]","[151401.0, 151411.0, 151421.0, 151431.0, 151441.0, 151451.0, 151461.0, 151471.0, 151481.0, 151491.0, 151501.0, 151511.0, 151521.0, 151531.0, 151541.0, 151551.0, 151561.0, 151571.0, 151581.0, 151591.0, 151601.0, 151611.0, 151621.0, 151631.0, 151641.0, 151651.0, 151661.0, 151671.0, 151681.0, 151691.0, 151701.0, 151711.0, 151721.0, 151731.0, 151741.0, 151751.0, 151761.0, 151771.0, 151781.0, 151791.0, 151801.0, 151811.0, 151821.0, 151831.0, 151841.0, 151851.0, 151861.0, 151871.0, 151881.0, 151891.0, 151901.0, 151911.0, 151921.0, 151931.0, 151941.0, 151951.0, 151961.0, 151971.0, 151981.0, 151991.0, 152001.0, 152011.0, 152021.0, 152031.0, 152041.0, 152051.0, 152061.0, 152066]","example_experiment","14","10763","14","yes","768","2","[0, 0, 0, 0, 0, 0, 0, 0, 0, 0, 0, 0, 0, 0, 0, 0, 0, 0, 0, 0, 0, 0, 0, 0, 0, 0]","[0, 0, 0, 0, 0, 0, 0, 0, 0, 0, 0, 0, 0, 0, 0, 0, 0, 0, 0, 0, 0, 0, 0, 0, 0, 0, 0, 0, 0, -1, -3, -6, -9, -10, -10, -10, -9, -7, -5, -3, -1, 0, 2, 3, 5, 6, 7, 8, 9, 11, 12, 14, 16, 18, 20, 23, 24, 26, 26, 26, 26, 26, 26, 26, 25, 24, 24, 24]","[0, 0, 0, 0, 0, 0, 0, 0, 0, 0, 0, 0, 0, 0, 0, 0, 0, 0, 0, 0, 0, 0, 0, 0, 0, 0]","[0, 0, 0, 0, 0, 0, 0, 0, 0, 0, 0, 0, 0, 0, 0, 0, 0, 0, 0, 0, 0, 0, 0, 0, 0, 0, 0, 0, 3, 12, 31, 56, 87, 112, 137, 158, 176, 194, 209, 223, 232, 239, 242, 246, 248, 249, 251, 253, 257, 262, 268, 272, 276, 280, 283, 287, 292, 296, 299, 303, 308, 312, 315, 317, 320, 322, 325, 326]"
"100","100","751.466666667","751.466666667","black","no","prac","3","legacy","legacy","w.png","r.png","w.png","w.png","1","legacy","0","relative","1","undefined","NA","red","NA","undefined","1","undefined","undefined","red","1","0","3","0","14","0","NA","14","14","14","14","14","0","14","14","14","14","0","4","NA","NA","14","0","0","0","0","0","0","0","14","11/05/20 11:01:31","Default description","yes","simont_HV.osexp","C:\Users\admin\Desktop\임채은\!MouseTracking_final","no","sans","no","18","no","black","no","yes","768","80","None","80","None","legacy","14","14","1","C:/Users/admin/Desktop/임채은/!MouseTracking_final/subject-28.csv","legacy","1","2","1","Kafkaesque Koffka","3.2.6","0","red","space","NA","None","red","start","space","NA","NA","NA","NA","509","86189","NA","250","509","390","21629","NA","NA","NA","NA","2","legacy","1024","2","48000","-16","experiment","28","even","legacy","red","green","blue","yellow","1","23076","NA","NA","154853","1441","NA","153587","154091","154343","153195","NA","1445","154867","155867","154091","154343","NA","NA","NA","NA","153195","NA","NA","NA","NA","NA","NA","109266","153193","[154092.0, 154102.0, 154112.0, 154122.0, 154132.0, 154142.0, 154152.0, 154162.0, 154172.0, 154182.0, 154192.0, 154202.0, 154212.0, 154222.0, 154232.0, 154242.0, 154252.0, 154262.0, 154272.0, 154282.0, 154292.0, 154302.0, 154312.0, 154322.0, 154332.0, 154342.0]","[154343.0, 154353.0, 154363.0, 154373.0, 154383.0, 154393.0, 154403.0, 154413.0, 154423.0, 154433.0, 154443.0, 154453.0, 154463.0, 154473.0, 154483.0, 154493.0, 154503.0, 154513.0, 154523.0, 154533.0, 154543.0, 154553.0, 154563.0, 154573.0, 154583.0, 154593.0, 154603.0, 154613.0, 154623.0, 154633.0, 154643.0, 154653.0, 154663.0, 154673.0, 154683.0, 154693.0, 154703.0, 154713.0, 154723.0, 154733.0, 154743.0, 154753.0, 154763.0, 154773.0, 154783.0, 154793.0, 154803.0, 154813.0, 154823.0, 154833.0, 154843.0, 154852]","example_experiment","15","11272","15","yes","768","1","[0, 0, 0, 0, 0, 0, 0, 0, 0, 0, 0, 0, 0, 0, 0, 0, 0, 0, 0, 0, 0, 0, 0, 0, 0, 0]","[0, 0, 0, 0, 0, 0, 0, 0, 0, -2, -4, -10, -18, -32, -50, -68, -86, -103, -124, -147, -168, -186, -201, -215, -226, -234, -239, -244, -247, -251, -254, -258, -263, -267, -271, -275, -278, -281, -284, -288, -291, -294, -296, -298, -301, -303, -305, -306, -306, -307, -307, -307]","[0, 0, 0, 0, 0, 0, 0, 0, 0, 0, 0, 0, 0, 0, 0, 0, 0, 0, 0, 0, 0, 0, 0, 0, 0, 0]","[0, 0, 0, 0, 0, 0, 0, 0, 0, 0, 0, 0, -1, -2, -5, -7, -8, -9, -10, -5, 0, 0, 1, 1, 2, 2, 3, 3, 3, 3, 3, 4, 5, 5, 6, 6, 6, 6, 7, 7, 8, 8, 8, 8, 8, 8, 8, 8, 8, 8, 8, 8]"
"100","100","752.125","752.125","black","no","prac","2","legacy","legacy","b.png","w.png","w.png","w.png","1","legacy","0","relative","1","undefined","NA","blue","NA","undefined","1","undefined","undefined","blue","3","0","3","0","15","0","NA","15","15","15","15","15","0","15","15","15","15","0","4","NA","NA","15","0","0","0","0","0","0","0","15","11/05/20 11:01:31","Default description","yes","simont_HV.osexp","C:\Users\admin\Desktop\임채은\!MouseTracking_final","no","sans","no","18","no","black","no","yes","768","140","None","140","None","legacy","15","15","2","C:/Users/admin/Desktop/임채은/!MouseTracking_final/subject-28.csv","legacy","2","1","2","Kafkaesque Koffka","3.2.6","0","blue","space","NA","None","blue","start","space","NA","NA","NA","NA","762","86189","NA","250","762","387","21629","NA","NA","NA","NA","2","legacy","1024","2","48000","-16","experiment","28","even","legacy","red","green","blue","yellow","2","23076","NA","NA","157895","1441","NA","156379","156881","157132","155990","NA","1445","157897","158897","156880","157132","NA","NA","NA","NA","155990","NA","NA","NA","NA","NA","NA","109266","155989","[156881.0, 156891.0, 156901.0, 156911.0, 156921.0, 156931.0, 156941.0, 156951.0, 156961.0, 156971.0, 156981.0, 156991.0, 157001.0, 157011.0, 157021.0, 157031.0, 157041.0, 157051.0, 157061.0, 157071.0, 157081.0, 157091.0, 157101.0, 157111.0, 157121.0, 157131.0]","[157132.0, 157142.0, 157152.0, 157162.0, 157172.0, 157182.0, 157192.0, 157202.0, 157212.0, 157222.0, 157232.0, 157242.0, 157252.0, 157262.0, 157272.0, 157282.0, 157292.0, 157302.0, 157312.0, 157322.0, 157332.0, 157342.0, 157352.0, 157362.0, 157372.0, 157382.0, 157392.0, 157402.0, 157412.0, 157422.0, 157432.0, 157442.0, 157452.0, 157462.0, 157472.0, 157482.0, 157492.0, 157502.0, 157512.0, 157522.0, 157532.0, 157542.0, 157552.0, 157562.0, 157572.0, 157582.0, 157592.0, 157602.0, 157612.0, 157622.0, 157632.0, 157642.0, 157652.0, 157662.0, 157672.0, 157682.0, 157692.0, 157702.0, 157712.0, 157722.0, 157732.0, 157742.0, 157752.0, 157762.0, 157772.0, 157782.0, 157792.0, 157802.0, 157812.0, 157822.0, 157832.0, 157842.0, 157852.0, 157862.0, 157872.0, 157882.0, 157892.0, 157894]","example_experiment","16","12034","16","yes","768","4","[0, 0, 0, 0, 0, 0, 0, 0, 0, 0, 0, 0, 0, 0, 0, 0, 0, 0, 0, 0, 0, 0, 0, 0, 0, 0]","[0, 0, 0, 0, 0, 0, 0, 0, 0, 0, 0, 0, 0, 0, 0, 0, 0, 0, 0, 0, 0, 1, 2, 2, 4, 7, 13, 26, 44, 68, 92, 120, 149, 175, 197, 215, 226, 232, 233, 231, 221, 208, 190, 167, 144, 118, 93, 75, 59, 50, 43, 39, 37, 36, 35, 34, 34, 33, 33, 32, 32, 31, 30, 28, 25, 23, 20, 16, 13, 10, 8, 6, 6, 5, 5, 5, 5, 5]","[0, 0, 0, 0, 0, 0, 0, 0, 0, 0, 0, 0, 0, 0, 0, 0, 0, 0, 0, 0, 0, 0, 0, 0, 0, 0]","[0, 0, 0, 0, 0, 0, 0, 0, 0, 0, 0, 0, 0, 0, 0, 2, 4, 9, 13, 17, 20, 23, 24, 24, 24, 24, 24, 19, 14, 7, 2, -2, -6, -9, -12, -17, -23, -30, -38, -47, -60, -73, -86, -103, -120, -139, -157, -171, -182, -191, -198, -205, -211, -217, -223, -228, -232, -236, -240, -243, -246, -250, -256, -263, -269, -276, -283, -291, -297, -302, -306, -309, -312, -315, -317, -318, -319, -319]"
"100","100","737.294117647","737.294117647","black","no","prac","4","legacy","legacy","w.png","w.png","r.png","w.png","1","legacy","0","relative","1","undefined","NA","red","NA","undefined","1","undefined","undefined","red","1","0","3","0","16","0","NA","16","16","16","16","16","0","16","16","16","16","0","4","NA","NA","16","0","0","0","0","0","0","0","16","11/05/20 11:01:31","Default description","yes","simont_HV.osexp","C:\Users\admin\Desktop\임채은\!MouseTracking_final","no","sans","no","18","no","black","no","yes","768","120","None","120","None","legacy","16","16","2","C:/Users/admin/Desktop/임채은/!MouseTracking_final/subject-28.csv","legacy","2","2","1","Kafkaesque Koffka","3.2.6","0","red","space","NA","None","red","start","space","NA","NA","NA","NA","500","86189","NA","250","500","251","21629","NA","NA","NA","NA","2","legacy","1024","2","48000","-16","experiment","28","even","legacy","red","green","blue","yellow","1","23076","NA","NA","160517","1441","NA","159262","159764","160016","159009","NA","1445","160537","161537","159764","160016","NA","NA","NA","NA","159009","NA","NA","NA","NA","NA","NA","109266","159008","[159765.0, 159775.0, 159785.0, 159795.0, 159805.0, 159815.0, 159825.0, 159835.0, 159845.0, 159855.0, 159865.0, 159875.0, 159885.0, 159895.0, 159905.0, 159915.0, 159925.0, 159935.0, 159945.0, 159955.0, 159965.0, 159975.0, 159985.0, 159995.0, 160005.0, 160015.0]","[160016.0, 160026.0, 160036.0, 160046.0, 160056.0, 160066.0, 160076.0, 160086.0, 160096.0, 160106.0, 160116.0, 160126.0, 160136.0, 160146.0, 160156.0, 160166.0, 160176.0, 160186.0, 160196.0, 160206.0, 160216.0, 160226.0, 160236.0, 160246.0, 160256.0, 160266.0, 160276.0, 160286.0, 160296.0, 160306.0, 160316.0, 160326.0, 160336.0, 160346.0, 160356.0, 160366.0, 160376.0, 160386.0, 160396.0, 160406.0, 160416.0, 160426.0, 160436.0, 160446.0, 160456.0, 160466.0, 160476.0, 160486.0, 160496.0, 160506.0, 160516.0, 160516]","example_experiment","17","12534","17","yes","768","2","[0, 0, 0, 0, 0, 0, 0, 0, 0, 0, 0, 0, 0, 0, 0, 0, 0, 0, 0, 0, 0, 0, 0, 0, 0, 0]","[0, 0, 0, 0, 0, 0, 0, 0, 0, 0, 0, 0, 0, -2, -5, -12, -20, -32, -49, -67, -92, -118, -144, -170, -193, -217, -234, -248, -259, -266, -272, -275, -275, -275, -275, -275, -275, -276, -278, -282, -286, -291, -297, -300, -304, -306, -307, -307, -307, -307, -307, -307]","[0, 0, 0, 0, 0, 0, 0, 0, 0, 0, 0, 0, 0, 0, 0, 0, 0, 0, 0, 0, 0, 0, 0, 0, 0, 0]","[0, 0, 0, 0, 0, 0, 0, 0, 0, 0, 0, 0, 0, 0, 0, 0, 0, 1, 1, 1, 1, -1, -3, -5, -5, -7, -7, -7, -7, -7, -7, -7, -7, -7, -7, -7, -7, -7, -6, -6, -5, -4, -3, -2, -1, -1, -1, -1, -1, -1, -1, -1]"
"100","100","733.166666667","733.166666667","black","no","prac","4","legacy","legacy","b.png","w.png","w.png","w.png","1","legacy","0","relative","1","undefined","NA","blue","NA","undefined","1","undefined","undefined","blue","3","0","3","0","17","0","NA","17","17","17","17","17","0","17","17","17","17","0","4","NA","NA","17","0","0","0","0","0","0","0","17","11/05/20 11:01:31","Default description","yes","simont_HV.osexp","C:\Users\admin\Desktop\임채은\!MouseTracking_final","no","sans","no","18","no","black","no","yes","768","280","None","280","None","legacy","17","17","2","C:/Users/admin/Desktop/임채은/!MouseTracking_final/subject-28.csv","legacy","2","2","2","Kafkaesque Koffka","3.2.6","0","blue","space","NA","None","blue","start","space","NA","NA","NA","NA","663","86189","NA","250","663","282","21629","NA","NA","NA","NA","2","legacy","1024","2","48000","-16","experiment","28","even","legacy","red","green","blue","yellow","2","23076","NA","NA","163354","1441","NA","161934","162438","162690","161649","NA","1445","163357","164357","162438","162690","NA","NA","NA","NA","161649","NA","NA","NA","NA","NA","NA","109266","161648","[162439.0, 162449.0, 162459.0, 162469.0, 162479.0, 162489.0, 162499.0, 162509.0, 162519.0, 162529.0, 162539.0, 162549.0, 162559.0, 162569.0, 162579.0, 162589.0, 162599.0, 162609.0, 162619.0, 162629.0, 162639.0, 162649.0, 162659.0, 162669.0, 162679.0, 162689.0]","[162690.0, 162700.0, 162710.0, 162720.0, 162730.0, 162740.0, 162750.0, 162760.0, 162770.0, 162780.0, 162790.0, 162800.0, 162810.0, 162820.0, 162830.0, 162840.0, 162850.0, 162860.0, 162870.0, 162880.0, 162890.0, 162900.0, 162910.0, 162920.0, 162930.0, 162940.0, 162950.0, 162960.0, 162970.0, 162980.0, 162990.0, 163000.0, 163010.0, 163020.0, 163030.0, 163040.0, 163050.0, 163060.0, 163070.0, 163080.0, 163090.0, 163100.0, 163110.0, 163120.0, 163130.0, 163140.0, 163150.0, 163160.0, 163170.0, 163180.0, 163190.0, 163200.0, 163210.0, 163220.0, 163230.0, 163240.0, 163250.0, 163260.0, 163270.0, 163280.0, 163290.0, 163300.0, 163310.0, 163320.0, 163330.0, 163340.0, 163350.0, 163353]","example_experiment","18","13197","18","yes","768","4","[0, 0, 0, 0, 0, 0, 0, 0, 0, 0, 0, 0, 0, 0, 0, 0, 0, 0, 0, 0, 0, 0, 0, 0, 0, 0]","[0, 0, 0, 0, 0, 0, 0, 0, 0, 0, 0, 0, 0, 0, 0, 0, 0, 0, 0, 0, 0, 0, 0, 0, 0, 0, 0, 0, 0, 1, 2, 5, 5, 6, 7, 7, 7, 8, 9, 9, 9, 9, 9, 9, 9, 9, 8, 8, 8, 7, 6, 6, 6, 5, 5, 4, 3, 2, 1, 0, -1, -1, -1, -1, -1, -1, -1, -1]","[0, 0, 0, 0, 0, 0, 0, 0, 0, 0, 0, 0, 0, 0, 0, 0, 0, 0, 0, 0, 0, 0, 0, 0, 0, 0]","[0, 0, 0, 0, 0, 0, 0, 0, 0, 0, 0, 0, 0, 0, 0, 0, 0, 0, 0, 0, 0, 0, 0, 0, 0, 0, 0, 0, 0, -3, -11, -25, -44, -69, -96, -122, -147, -169, -188, -207, -221, -235, -245, -253, -260, -267, -271, -276, -280, -282, -284, -285, -287, -288, -290, -292, -294, -297, -298, -300, -302, -303, -306, -308, -309, -310, -310, -310]"
"100","100","722.210526316","722.210526316","black","no","prac","4","legacy","legacy","w.png","g.png","w.png","w.png","2","legacy","0","relative","1","undefined","NA","green","NA","undefined","1","undefined","undefined","green","2","0","3","0","18","0","NA","18","18","18","18","18","0","18","18","18","18","0","4","NA","NA","18","0","0","0","0","0","0","0","18","11/05/20 11:01:31","Default description","yes","simont_HV.osexp","C:\Users\admin\Desktop\임채은\!MouseTracking_final","no","sans","no","18","no","black","no","yes","768","160","None","160","None","legacy","18","18","1","C:/Users/admin/Desktop/임채은/!MouseTracking_final/subject-28.csv","legacy","2","2","2","Kafkaesque Koffka","3.2.6","0","green","space","NA","None","green","start","space","NA","NA","NA","NA","525","86189","NA","250","525","277","21629","NA","NA","NA","NA","2","legacy","1024","2","48000","-16","experiment","28","even","legacy","red","green","blue","yellow","1","23076","NA","NA","166033","1441","NA","164751","165255","165507","164472","NA","1445","166047","167047","165255","165507","NA","NA","NA","NA","164472","NA","NA","NA","NA","NA","NA","109266","164471","[165256.0, 165266.0, 165276.0, 165286.0, 165296.0, 165306.0, 165316.0, 165326.0, 165336.0, 165346.0, 165356.0, 165366.0, 165376.0, 165386.0, 165396.0, 165406.0, 165416.0, 165426.0, 165436.0, 165446.0, 165456.0, 165466.0, 165476.0, 165486.0, 165496.0, 165506.0]","[165507.0, 165517.0, 165527.0, 165537.0, 165547.0, 165557.0, 165567.0, 165577.0, 165587.0, 165597.0, 165607.0, 165617.0, 165627.0, 165637.0, 165647.0, 165657.0, 165667.0, 165677.0, 165687.0, 165697.0, 165707.0, 165717.0, 165727.0, 165737.0, 165747.0, 165757.0, 165767.0, 165777.0, 165787.0, 165797.0, 165807.0, 165817.0, 165827.0, 165837.0, 165847.0, 165857.0, 165867.0, 165877.0, 165887.0, 165897.0, 165907.0, 165917.0, 165927.0, 165937.0, 165947.0, 165957.0, 165967.0, 165977.0, 165987.0, 165997.0, 166007.0, 166017.0, 166027.0, 166032]","example_experiment","19","13722","19","yes","768","4","[0, 0, 0, 0, 0, 0, 0, 0, 0, 0, 0, 0, 0, 0, 0, 0, 0, 0, 0, 0, 0, 0, 0, 0, 0, 0]","[0, 0, 0, 0, 0, 0, 0, 0, 0, 0, 0, 0, 0, 0, 0, 0, 0, 1, 6, 15, 28, 48, 72, 94, 122, 148, 176, 203, 229, 254, 279, 300, 317, 331, 341, 346, 348, 349, 349, 349, 349, 349, 349, 349, 349, 349, 349, 349, 349, 349, 349, 349, 349, 349]","[0, 0, 0, 0, 0, 0, 0, 0, 0, 0, 0, 0, 0, 0, 0, 0, 0, 0, 0, 0, 0, 0, 0, 0, 0, 0]","[0, 0, 0, 0, 0, 0, 0, 0, 0, 0, 0, 0, 0, 0, 0, 0, 0, 0, 0, 0, 0, -1, -2, -4, -6, -7, -8, -8, -8, -7, -4, -2, -1, -1, -1, -1, -1, -1, -1, -1, -1, -1, -1, -1, -1, -1, -1, -1, -1, -1, -1, -1, -1, -1]"
"100","100","731.35","731.35","black","no","prac","3","legacy","legacy","y.png","w.png","w.png","w.png","2","legacy","0","relative","1","undefined","NA","yellow","NA","undefined","1","undefined","undefined","yellow","4","0","3","0","19","0","NA","19","19","19","19","19","0","19","19","19","19","0","4","NA","NA","19","0","0","0","0","0","0","0","19","11/05/20 11:01:31","Default description","yes","simont_HV.osexp","C:\Users\admin\Desktop\임채은\!MouseTracking_final","no","sans","no","18","no","black","no","yes","768","240","None","240","None","legacy","19","19","2","C:/Users/admin/Desktop/임채은/!MouseTracking_final/subject-28.csv","legacy","1","2","2","Kafkaesque Koffka","3.2.6","0","yellow","space","NA","None","yellow","start","space","NA","NA","NA","NA","905","86189","NA","250","905","275","21629","NA","NA","NA","NA","2","legacy","1024","2","48000","-16","experiment","28","even","legacy","red","green","blue","yellow","2","23076","NA","NA","169099","1441","NA","167437","167941","168193","167159","NA","1445","169117","170117","167941","168193","NA","NA","NA","NA","167159","NA","NA","NA","NA","NA","NA","109266","167158","[167942.0, 167952.0, 167962.0, 167972.0, 167982.0, 167992.0, 168002.0, 168012.0, 168022.0, 168032.0, 168042.0, 168052.0, 168062.0, 168072.0, 168082.0, 168092.0, 168102.0, 168112.0, 168122.0, 168132.0, 168142.0, 168152.0, 168162.0, 168172.0, 168182.0, 168192.0]","[168193.0, 168203.0, 168213.0, 168223.0, 168233.0, 168243.0, 168253.0, 168263.0, 168273.0, 168283.0, 168293.0, 168303.0, 168313.0, 168323.0, 168333.0, 168343.0, 168353.0, 168363.0, 168373.0, 168383.0, 168393.0, 168403.0, 168413.0, 168423.0, 168433.0, 168443.0, 168453.0, 168463.0, 168473.0, 168483.0, 168493.0, 168503.0, 168513.0, 168523.0, 168533.0, 168543.0, 168553.0, 168563.0, 168573.0, 168583.0, 168593.0, 168603.0, 168613.0, 168623.0, 168633.0, 168643.0, 168653.0, 168663.0, 168673.0, 168683.0, 168693.0, 168703.0, 168713.0, 168723.0, 168733.0, 168743.0, 168753.0, 168763.0, 168771, 168782.0, 168792.0, 168802.0, 168812.0, 168822.0, 168832.0, 168842.0, 168852.0, 168862.0, 168872.0, 168882.0, 168892.0, 168902.0, 168912.0, 168922.0, 168932.0, 168942.0, 168952.0, 168962.0, 168972.0, 168982.0, 168992.0, 169002.0, 169012.0, 169022.0, 169032.0, 169042.0, 169052.0, 169062.0, 169072.0, 169082.0, 169092.0, 169098]","example_experiment","20","14627","20","yes","768","3","[0, 0, 0, 0, 0, 0, 0, 0, 0, 0, 0, 0, 0, 0, 0, 0, 0, 0, 0, 0, 0, 0, 0, 0, 0, 0]","[0, 0, 0, 0, 0, 0, 0, 0, 0, 0, 0, 0, 0, 0, 0, 0, 0, 0, 0, 0, 0, 0, 0, 0, 0, 0, 0, -1, -4, -7, -11, -15, -19, -22, -25, -26, -26, -26, -26, -26, -25, -25, -24, -24, -24, -24, -24, -24, -24, -24, -24, -24, -24, -24, -24, -24, -24, -24, -24, -24, -24, -24, -24, -24, -24, -24, -24, -24, -24, -24, -24, -24, -24, -24, -24, -24, -24, -24, -24, -24, -24, -24, -24, -24, -24, -24, -24, -24, -24, -24, -24, -24]","[0, 0, 0, 0, 0, 0, 0, 0, 0, 0, 0, 0, 0, 0, 0, 0, 0, 0, 0, 0, 0, 0, 0, 0, 0, 0]","[0, 0, 0, 0, 0, 0, 0, 0, 0, 0, 0, 0, 0, 0, 0, 0, 0, 0, 0, 0, 0, 0, 0, 0, 0, 1, 6, 13, 25, 43, 62, 88, 115, 143, 171, 197, 220, 237, 249, 258, 262, 267, 270, 274, 276, 279, 281, 281, 282, 282, 282, 282, 283, 283, 284, 284, 284, 284, 284, 284, 284, 284, 284, 284, 284, 285, 285, 286, 286, 286, 286, 286, 286, 286, 286, 286, 286, 287, 287, 287, 287, 287, 288, 289, 290, 292, 295, 298, 300, 301, 302, 303]"
"100","100","723.428571429","723.428571429","black","no","prac","2","legacy","legacy","w.png","w.png","r.png","w.png","1","legacy","0","relative","1","undefined","NA","red","NA","undefined","1","undefined","undefined","red","1","0","3","0","20","0","NA","20","20","20","20","20","0","20","20","20","20","0","4","NA","NA","20","0","0","0","0","0","0","0","20","11/05/20 11:01:31","Default description","yes","simont_HV.osexp","C:\Users\admin\Desktop\임채은\!MouseTracking_final","no","sans","no","18","no","black","no","yes","768","170","None","170","None","legacy","20","20","2","C:/Users/admin/Desktop/임채은/!MouseTracking_final/subject-28.csv","legacy","2","1","2","Kafkaesque Koffka","3.2.6","0","red","space","NA","None","red","start","space","NA","NA","NA","NA","565","86189","NA","250","565","342","21629","NA","NA","NA","NA","2","legacy","1024","2","48000","-16","experiment","28","even","legacy","red","green","blue","yellow","1","23076","NA","NA","171899","1441","NA","170577","171081","171333","170234","NA","1445","171907","172907","171081","171333","NA","NA","NA","NA","170234","NA","NA","NA","NA","NA","NA","109266","170232","[171082.0, 171092.0, 171102.0, 171112.0, 171122.0, 171132.0, 171142.0, 171152.0, 171162.0, 171172.0, 171182.0, 171192.0, 171202.0, 171212.0, 171222.0, 171232.0, 171242.0, 171252.0, 171262.0, 171272.0, 171282.0, 171292.0, 171302.0, 171312.0, 171322.0, 171332.0]","[171333.0, 171343.0, 171353.0, 171363.0, 171373.0, 171383.0, 171393.0, 171403.0, 171413.0, 171423.0, 171433.0, 171443.0, 171453.0, 171463.0, 171473.0, 171483.0, 171493.0, 171503.0, 171513.0, 171523.0, 171533.0, 171543.0, 171553.0, 171563.0, 171573.0, 171583.0, 171593.0, 171603.0, 171613.0, 171623.0, 171633.0, 171643.0, 171653.0, 171663.0, 171673.0, 171683.0, 171693.0, 171703.0, 171713.0, 171723.0, 171733.0, 171743.0, 171753.0, 171763.0, 171773.0, 171783.0, 171793.0, 171803.0, 171813.0, 171823.0, 171833.0, 171843.0, 171853.0, 171863.0, 171873.0, 171883.0, 171893.0, 171898]","example_experiment","21","15192","21","yes","768","4","[0, 0, 0, 0, 0, 0, 0, 0, 0, 0, 0, 0, 0, 0, 0, 0, 0, 0, 0, 0, 0, 0, 0, 0, 0, 0]","[0, 0, 0, 0, 0, 0, 0, 0, 0, 0, 0, 0, 0, 0, 0, 0, 0, 0, -2, -6, -13, -23, -37, -52, -72, -96, -121, -142, -165, -181, -197, -208, -217, -224, -229, -234, -238, -241, -244, -246, -250, -256, -262, -268, -274, -279, -284, -289, -295, -300, -306, -310, -313, -314, -314, -314, -314, -314]","[0, 0, 0, 0, 0, 0, 0, 0, 0, 0, 0, 0, 0, 0, 0, 0, 0, 0, 0, 0, 0, 0, 0, 0, 0, 0]","[0, 0, 0, 0, 0, 0, 0, 0, 0, 0, 0, 0, 0, 0, 0, 0, 0, 0, 0, 0, 0, 1, 1, 1, 1, 1, 1, 1, 2, 4, 4, 5, 5, 5, 5, 4, 3, 2, 1, 1, 0, 0, 0, 0, 0, 0, 0, 0, 0, 0, 1, 1, 2, 2, 2, 2, 2, 2]"
"100","100","720.727272727","720.727272727","black","no","prac","4","legacy","legacy","w.png","w.png","w.png","y.png","2","legacy","0","relative","1","undefined","NA","yellow","NA","undefined","1","undefined","undefined","yellow","4","0","3","0","21","0","NA","21","21","21","21","21","0","21","21","21","21","0","4","NA","NA","21","0","0","0","0","0","0","0","21","11/05/20 11:01:31","Default description","yes","simont_HV.osexp","C:\Users\admin\Desktop\임채은\!MouseTracking_final","no","sans","no","18","no","black","no","yes","768","50","None","50","None","legacy","21","21","1","C:/Users/admin/Desktop/임채은/!MouseTracking_final/subject-28.csv","legacy","2","2","1","Kafkaesque Koffka","3.2.6","0","yellow","space","NA","None","yellow","start","space","NA","NA","NA","NA","664","86189","NA","250","664","290","21629","NA","NA","NA","NA","2","legacy","1024","2","48000","-16","experiment","28","even","legacy","red","green","blue","yellow","2","23076","NA","NA","174740","1441","NA","173319","173823","174075","173027","NA","1445","174747","175747","173823","174075","NA","NA","NA","NA","173027","NA","NA","NA","NA","NA","NA","109266","173025","[173824.0, 173834.0, 173844.0, 173854.0, 173864.0, 173874.0, 173884.0, 173894.0, 173904.0, 173914.0, 173924.0, 173934.0, 173944.0, 173954.0, 173964.0, 173974.0, 173984.0, 173994.0, 174004.0, 174014.0, 174024.0, 174034.0, 174044.0, 174054.0, 174064.0, 174074.0]","[174075.0, 174085.0, 174095.0, 174105.0, 174115.0, 174125.0, 174135.0, 174145.0, 174155.0, 174165.0, 174175.0, 174185.0, 174195.0, 174205.0, 174215.0, 174225.0, 174235.0, 174245.0, 174255.0, 174265.0, 174275.0, 174285.0, 174295.0, 174305.0, 174315.0, 174325.0, 174335.0, 174345.0, 174355.0, 174365.0, 174375.0, 174385.0, 174395.0, 174405.0, 174415.0, 174425.0, 174435.0, 174445.0, 174455.0, 174465.0, 174475.0, 174485.0, 174495.0, 174505.0, 174515.0, 174525.0, 174535.0, 174545.0, 174555.0, 174565.0, 174575.0, 174585.0, 174595.0, 174605.0, 174615.0, 174625.0, 174635.0, 174645.0, 174655.0, 174665.0, 174675.0, 174685.0, 174695.0, 174705.0, 174715.0, 174725.0, 174735.0, 174739]","example_experiment","22","15856","22","yes","768","2","[0, 0, 0, 0, 0, 0, 0, 0, 0, 0, 0, 0, 0, 0, 0, 0, 0, 0, 0, 0, 0, 0, 0, 0, 0, 0]","[0, 0, 0, 0, 0, 0, 0, 0, 0, 0, 0, 1, 2, 2, 2, 3, 3, 3, 3, 3, 3, 3, 3, 3, 3, 4, 6, 8, 12, 14, 16, 19, 21, 23, 25, 25, 25, 25, 26, 29, 31, 32, 35, 37, 38, 39, 39, 40, 40, 40, 40, 39, 37, 35, 32, 29, 26, 24, 22, 20, 19, 18, 17, 16, 16, 16, 16, 16]","[0, 0, 0, 0, 0, 0, 0, 0, 0, 0, 0, 0, 0, 0, 0, 0, 0, 0, 0, 0, 0, 0, 0, 0, 0, 0]","[0, 0, 0, 0, 0, 0, -1, -1, -2, -4, -6, -8, -12, -15, -18, -21, -22, -23, -23, -23, -23, -23, -23, -23, -23, -19, -8, 11, 31, 54, 79, 107, 135, 160, 181, 200, 217, 232, 243, 252, 259, 263, 268, 271, 274, 277, 279, 282, 286, 290, 295, 300, 307, 312, 317, 322, 326, 329, 331, 333, 334, 334, 335, 335, 335, 335, 335, 335]"
"100","100","722.913043478","722.913043478","black","no","prac","4","legacy","legacy","w.png","g.png","w.png","w.png","2","legacy","0","relative","1","undefined","NA","green","NA","undefined","1","undefined","undefined","green","2","0","3","0","22","0","NA","22","22","22","22","22","0","22","22","22","22","0","4","NA","NA","22","0","0","0","0","0","0","0","22","11/05/20 11:01:31","Default description","yes","simont_HV.osexp","C:\Users\admin\Desktop\임채은\!MouseTracking_final","no","sans","no","18","no","black","no","yes","768","80","None","80","None","legacy","22","22","1","C:/Users/admin/Desktop/임채은/!MouseTracking_final/subject-28.csv","legacy","2","2","2","Kafkaesque Koffka","3.2.6","0","green","space","NA","None","green","start","space","NA","NA","NA","NA","771","86189","NA","250","771","234","21629","NA","NA","NA","NA","2","legacy","1024","2","48000","-16","experiment","28","even","legacy","red","green","blue","yellow","1","23076","NA","NA","177653","1441","NA","176125","176629","176881","175888","NA","1445","177667","178667","176629","176881","NA","NA","NA","NA","175888","NA","NA","NA","NA","NA","NA","109266","175887","[176630.0, 176640.0, 176650.0, 176660.0, 176670.0, 176680.0, 176690.0, 176700.0, 176710.0, 176720.0, 176730.0, 176740.0, 176750.0, 176760.0, 176770.0, 176780.0, 176790.0, 176800.0, 176810.0, 176820.0, 176830.0, 176840.0, 176850.0, 176860.0, 176870.0, 176880.0]","[176881.0, 176891.0, 176901.0, 176911.0, 176921.0, 176931.0, 176941.0, 176951.0, 176961.0, 176971.0, 176981.0, 176991.0, 177001.0, 177011.0, 177021.0, 177031.0, 177041.0, 177051.0, 177061.0, 177071.0, 177081.0, 177091.0, 177101.0, 177111.0, 177121.0, 177131.0, 177141.0, 177151.0, 177161.0, 177171.0, 177181.0, 177191.0, 177201.0, 177211.0, 177221.0, 177231.0, 177241.0, 177251.0, 177261.0, 177271.0, 177281.0, 177291.0, 177301.0, 177311.0, 177321.0, 177331.0, 177341.0, 177351.0, 177361.0, 177371.0, 177381.0, 177391.0, 177401.0, 177411.0, 177421.0, 177431.0, 177441.0, 177451.0, 177461.0, 177471.0, 177481.0, 177491.0, 177501.0, 177511.0, 177521.0, 177531.0, 177541.0, 177551.0, 177561.0, 177571.0, 177581.0, 177591.0, 177601.0, 177611.0, 177621.0, 177631.0, 177641.0, 177651.0, 177652]","example_experiment","23","16627","23","yes","768","4","[0, 0, 0, 0, 0, 0, 0, 0, 0, 0, 0, 0, 0, 0, 0, 0, 0, 0, 0, 0, 0, 0, 0, 0, 0, 0]","[0, 0, 0, 0, 0, 0, 0, 0, 0, -3, -7, -14, -24, -38, -53, -67, -82, -100, -114, -131, -142, -151, -157, -161, -163, -163, -163, -163, -161, -155, -147, -136, -121, -105, -85, -59, -32, 2, 33, 64, 95, 123, 147, 170, 189, 204, 223, 238, 256, 272, 285, 292, 298, 303, 307, 309, 310, 310, 310, 308, 305, 302, 301, 300, 299, 299, 299, 299, 300, 301, 302, 303, 304, 305, 305, 306, 306, 306, 306]","[0, 0, 0, 0, 0, 0, 0, 0, 0, 0, 0, 0, 0, 0, 0, 0, 0, 0, 0, 0, 0, 0, 0, 0, 0, 0]","[0, 0, 0, 0, 0, 0, 0, 0, 0, -1, -2, -3, -4, -5, -6, -7, -7, -7, -7, -9, -9, -11, -12, -12, -13, -13, -13, -13, -13, -13, -11, -10, -9, -8, -5, -3, 0, 5, 9, 14, 19, 24, 28, 32, 35, 37, 40, 42, 44, 44, 45, 45, 45, 44, 43, 43, 41, 40, 38, 36, 33, 30, 28, 27, 25, 22, 19, 16, 13, 10, 7, 5, 2, 1, -1, -1, -1, -1, -1]"
"100","100","730.083333333","730.083333333","black","no","prac","3","legacy","legacy","w.png","w.png","w.png","b.png","1","legacy","0","relative","1","undefined","NA","blue","NA","undefined","1","undefined","undefined","blue","3","0","3","0","23","0","NA","23","23","23","23","23","0","23","23","23","23","0","4","NA","NA","23","0","0","0","0","0","0","0","23","11/05/20 11:01:31","Default description","yes","simont_HV.osexp","C:\Users\admin\Desktop\임채은\!MouseTracking_final","no","sans","no","18","no","black","no","yes","768","510","None","510","None","legacy","23","23","1","C:/Users/admin/Desktop/임채은/!MouseTracking_final/subject-28.csv","legacy","1","2","2","Kafkaesque Koffka","3.2.6","0","blue","space","NA","None","blue","start","space","NA","NA","NA","NA","895","86189","NA","250","895","256","21629","NA","NA","NA","NA","2","legacy","1024","2","48000","-16","experiment","28","even","legacy","red","green","blue","yellow","2","23076","NA","NA","180692","1441","NA","179040","179544","179796","178782","NA","1445","180697","181697","179544","179796","NA","NA","NA","NA","178782","NA","NA","NA","NA","NA","NA","109266","178781","[179545.0, 179555.0, 179565.0, 179575.0, 179585.0, 179595.0, 179605.0, 179615.0, 179625.0, 179635.0, 179645.0, 179655.0, 179665.0, 179675.0, 179685.0, 179695.0, 179705.0, 179715.0, 179725.0, 179735.0, 179745.0, 179755.0, 179765.0, 179775.0, 179785.0, 179795.0]","[179796.0, 179806.0, 179816.0, 179826.0, 179836.0, 179846.0, 179856.0, 179866.0, 179876.0, 179886.0, 179896.0, 179906.0, 179916.0, 179926.0, 179936.0, 179946.0, 179956.0, 179966.0, 179976.0, 179986.0, 179996.0, 180006.0, 180016.0, 180026.0, 180036.0, 180046.0, 180056.0, 180066.0, 180076.0, 180086.0, 180096.0, 180106.0, 180116.0, 180126.0, 180136.0, 180146.0, 180156.0, 180166.0, 180176.0, 180186.0, 180196.0, 180206.0, 180216.0, 180226.0, 180236.0, 180246.0, 180256.0, 180266.0, 180276.0, 180286.0, 180296.0, 180306.0, 180316.0, 180326.0, 180336.0, 180346.0, 180356.0, 180366.0, 180376.0, 180386.0, 180396.0, 180406.0, 180416.0, 180426.0, 180436.0, 180446.0, 180456.0, 180466.0, 180476.0, 180486.0, 180496.0, 180506.0, 180516.0, 180526.0, 180536.0, 180546.0, 180556.0, 180566.0, 180576.0, 180586.0, 180596.0, 180606.0, 180616.0, 180626.0, 180636.0, 180646.0, 180656.0, 180666.0, 180676.0, 180686.0, 180691]","example_experiment","24","17522","24","yes","768","3","[0, 0, 0, 0, 0, 0, 0, 0, 0, 0, 0, 0, 0, 0, 0, 0, 0, 0, 0, 0, 0, 0, 0, 0, 0, 0]","[0, 0, 0, 0, 0, 0, 0, 0, 0, 0, 0, 0, 0, 0, 0, 0, 0, 0, 0, 0, 0, 0, 0, 0, 0, 0, 0, 0, 0, 0, 0, 0, 0, 0, 0, 0, 0, 0, 0, 0, 0, 0, 0, 0, 0, 0, 0, 0, 0, 0, 0, 0, 0, 0, 2, 3, 5, 8, 10, 13, 14, 14, 14, 13, 12, 11, 11, 11, 11, 11, 11, 11, 11, 11, 11, 11, 11, 11, 11, 11, 11, 11, 10, 9, 8, 7, 7, 7, 7, 7, 7]","[0, 0, 0, 0, 0, 0, 0, 0, 0, 0, 0, 0, 0, 0, 0, 0, 0, 0, 0, 0, 0, 0, 0, 0, 0, 0]","[0, 0, 0, 0, 0, 0, 0, 0, 0, 0, 0, 0, 0, 0, 0, 0, 0, 0, 0, 0, 0, 0, 0, 0, 0, 0, 0, 0, 0, 0, 0, 0, 0, 0, 0, 0, 0, 0, 0, 0, 0, 0, 0, 0, 0, 0, 0, 0, 0, 0, 0, 0, -2, -6, -11, -18, -29, -44, -62, -84, -105, -124, -143, -163, -178, -192, -205, -214, -223, -230, -237, -244, -249, -254, -259, -263, -266, -268, -271, -275, -278, -281, -285, -289, -292, -294, -295, -295, -295, -295, -295]"
"100","100","721.8","721.8","black","no","prac","1","legacy","legacy","w.png","r.png","w.png","w.png","1","legacy","0","relative","1","undefined","NA","red","NA","undefined","1","undefined","undefined","red","1","0","3","0","24","0","NA","24","24","24","24","24","0","24","24","24","24","0","4","NA","NA","24","0","0","0","0","0","0","0","24","11/05/20 11:01:31","Default description","yes","simont_HV.osexp","C:\Users\admin\Desktop\임채은\!MouseTracking_final","no","sans","no","18","no","black","no","yes","768","110","None","110","None","legacy","24","24","1","C:/Users/admin/Desktop/임채은/!MouseTracking_final/subject-28.csv","legacy","1","1","2","Kafkaesque Koffka","3.2.6","0","red","space","NA","None","red","start","space","NA","NA","NA","NA","523","86189","NA","250","523","307","21629","NA","NA","NA","NA","2","legacy","1024","2","48000","-16","experiment","28","even","legacy","red","green","blue","yellow","1","23076","NA","NA","183396","1441","NA","182117","182620","182872","181808","NA","1445","183407","184407","182620","182872","NA","NA","NA","NA","181808","NA","NA","NA","NA","NA","NA","109266","181807","[182621.0, 182631.0, 182641.0, 182651.0, 182661.0, 182671.0, 182681.0, 182691.0, 182701.0, 182711.0, 182721.0, 182731.0, 182741.0, 182751.0, 182761.0, 182771.0, 182781.0, 182791.0, 182801.0, 182811.0, 182821.0, 182831.0, 182841.0, 182851.0, 182861.0, 182871.0]","[182872.0, 182882.0, 182892.0, 182902.0, 182912.0, 182922.0, 182932.0, 182942.0, 182952.0, 182962.0, 182972.0, 182982.0, 182992.0, 183002.0, 183012.0, 183022.0, 183032.0, 183042.0, 183052.0, 183062.0, 183072.0, 183082.0, 183092.0, 183102.0, 183112.0, 183122.0, 183132.0, 183142.0, 183152.0, 183162.0, 183172.0, 183182.0, 183192.0, 183202.0, 183212.0, 183222.0, 183232.0, 183242.0, 183252.0, 183262.0, 183272.0, 183282.0, 183292.0, 183302.0, 183312.0, 183322.0, 183332.0, 183342.0, 183352.0, 183362.0, 183372.0, 183382.0, 183392.0, 183395]","example_experiment","25","18045","25","yes","768","3","[0, 0, 0, 0, 0, 0, 0, 0, 0, 0, 0, 0, 0, 0, 0, 0, 0, 0, 0, 0, 0, 0, 0, 0, 0, 0]","[0, 0, 0, 0, 0, 0, 0, 0, 0, 0, 0, 0, -1, -4, -10, -16, -26, -39, -54, -72, -92, -112, -133, -151, -168, -182, -196, -208, -217, -224, -229, -233, -237, -241, -245, -250, -256, -263, -269, -275, -282, -289, -296, -303, -309, -315, -320, -324, -326, -328, -328, -328, -328, -328]","[0, 0, 0, 0, 0, 0, 0, 0, 0, 0, 0, 0, 0, 0, 0, 0, 0, 0, 0, 0, 0, 0, 0, 0, 0, 0]","[0, 0, 0, 0, 0, 0, 0, 0, 0, 0, 0, 0, 0, 0, 1, 1, 1, 2, 2, 4, 5, 6, 7, 8, 8, 8, 8, 8, 8, 8, 7, 7, 6, 6, 6, 6, 6, 6, 6, 6, 6, 6, 6, 6, 6, 6, 6, 6, 6, 6, 6, 7, 7, 7]"
"100","100","716.846153846","716.846153846","black","no","prac","2","legacy","legacy","w.png","w.png","w.png","y.png","2","legacy","0","relative","1","undefined","NA","yellow","NA","undefined","1","undefined","undefined","yellow","4","0","3","0","25","0","NA","25","25","25","25","25","0","25","25","25","25","0","4","NA","NA","25","0","0","0","0","0","0","0","25","11/05/20 11:01:31","Default description","yes","simont_HV.osexp","C:\Users\admin\Desktop\임채은\!MouseTracking_final","no","sans","no","18","no","black","no","yes","768","220","None","220","None","legacy","25","25","1","C:/Users/admin/Desktop/임채은/!MouseTracking_final/subject-28.csv","legacy","2","1","1","Kafkaesque Koffka","3.2.6","0","yellow","space","NA","None","yellow","start","space","NA","NA","NA","NA","593","86189","NA","250","593","243","21629","NA","NA","NA","NA","2","legacy","1024","2","48000","-16","experiment","28","even","legacy","red","green","blue","yellow","2","23076","NA","NA","186116","1441","NA","184766","185270","185522","184521","NA","1445","186137","187137","185270","185522","NA","NA","NA","NA","184521","NA","NA","NA","NA","NA","NA","109266","184520","[185271.0, 185281.0, 185291.0, 185301.0, 185311.0, 185321.0, 185331.0, 185341.0, 185351.0, 185361.0, 185371.0, 185381.0, 185391.0, 185401.0, 185411.0, 185421.0, 185431.0, 185441.0, 185451.0, 185461.0, 185471.0, 185481.0, 185491.0, 185501.0, 185511.0, 185521.0]","[185522.0, 185532.0, 185542.0, 185552.0, 185562.0, 185572.0, 185582.0, 185592.0, 185602.0, 185612.0, 185622.0, 185632.0, 185642.0, 185652.0, 185662.0, 185672.0, 185682.0, 185692.0, 185702.0, 185712.0, 185722.0, 185732.0, 185742.0, 185752.0, 185762.0, 185772.0, 185782.0, 185792.0, 185802.0, 185812.0, 185822.0, 185832.0, 185842.0, 185852.0, 185862.0, 185872.0, 185882.0, 185892.0, 185902.0, 185912.0, 185922.0, 185932.0, 185942.0, 185952.0, 185962.0, 185972.0, 185982.0, 185992.0, 186002.0, 186012.0, 186022.0, 186032.0, 186042.0, 186052.0, 186062.0, 186072.0, 186082.0, 186092.0, 186102.0, 186112.0, 186115]","example_experiment","26","18638","26","yes","768","2","[0, 0, 0, 0, 0, 0, 0, 0, 0, 0, 0, 0, 0, 0, 0, 0, 0, 0, 0, 0, 0, 0, 0, 0, 0, 0]","[0, 0, 0, 0, 0, 0, 0, 0, 0, 0, 0, 0, 0, 0, 0, 0, 0, 0, 0, 0, 0, 0, 0, 0, -1, -1, -2, -2, -2, -4, -4, -4, -4, -3, -1, 1, 2, 3, 3, 3, 3, 3, 3, 3, 3, 3, 3, 3, 3, 3, 3, 3, 3, 3, 4, 5, 5, 5, 5, 5, 5]","[0, 0, 0, 0, 0, 0, 0, 0, 0, 0, 0, 0, 0, 0, 0, 0, 0, 0, 0, 0, 0, 0, 0, 0, 0, 0]","[0, 0, 0, 0, 0, 0, 0, 0, 0, 0, 0, 0, 0, 0, 0, 0, 0, 0, 0, 0, 0, 0, 0, 5, 13, 25, 38, 54, 72, 88, 106, 123, 143, 164, 186, 203, 218, 231, 240, 250, 259, 264, 269, 274, 280, 288, 297, 306, 310, 311, 313, 315, 318, 320, 321, 323, 324, 325, 325, 325, 325]"
"100","100","710.333333333","710.333333333","black","no","prac","3","legacy","legacy","w.png","w.png","g.png","w.png","2","legacy","0","relative","1","undefined","NA","green","NA","undefined","1","undefined","undefined","green","2","0","3","0","26","0","NA","26","26","26","26","26","0","26","26","26","26","0","4","NA","NA","26","0","0","0","0","0","0","0","26","11/05/20 11:01:31","Default description","yes","simont_HV.osexp","C:\Users\admin\Desktop\임채은\!MouseTracking_final","no","sans","no","18","no","black","no","yes","768","170","None","170","None","legacy","26","26","2","C:/Users/admin/Desktop/임채은/!MouseTracking_final/subject-28.csv","legacy","1","2","1","Kafkaesque Koffka","3.2.6","0","green","space","NA","None","green","start","space","NA","NA","NA","NA","541","86189","NA","250","541","285","21629","NA","NA","NA","NA","2","legacy","1024","2","48000","-16","experiment","28","even","legacy","red","green","blue","yellow","1","23076","NA","NA","188841","1441","NA","187543","188047","188299","187256","NA","1445","188847","189847","188047","188299","NA","NA","NA","NA","187256","NA","NA","NA","NA","NA","NA","109266","187254","[188048.0, 188058.0, 188068.0, 188078.0, 188088.0, 188098.0, 188108.0, 188118.0, 188128.0, 188138.0, 188148.0, 188158.0, 188168.0, 188178.0, 188188.0, 188198.0, 188208.0, 188218.0, 188228.0, 188238.0, 188248.0, 188258.0, 188268.0, 188278.0, 188288.0, 188298.0]","[188299.0, 188309.0, 188319.0, 188329.0, 188339.0, 188349.0, 188359.0, 188369.0, 188379.0, 188389.0, 188399.0, 188409.0, 188419.0, 188429.0, 188439.0, 188449.0, 188459.0, 188469.0, 188479.0, 188489.0, 188499.0, 188509.0, 188519.0, 188529.0, 188539.0, 188549.0, 188559.0, 188569.0, 188579.0, 188589.0, 188599.0, 188609.0, 188619.0, 188629.0, 188639.0, 188649.0, 188659.0, 188669.0, 188679.0, 188689.0, 188699.0, 188709.0, 188719.0, 188729.0, 188739.0, 188749.0, 188759.0, 188769.0, 188779.0, 188789.0, 188799.0, 188809.0, 188819.0, 188829.0, 188839.0, 188840]","example_experiment","27","19179","27","yes","768","1","[0, 0, 0, 0, 0, 0, 0, 0, 0, 0, 0, 0, 0, 0, 0, 0, 0, 0, 0, 0, 0, 0, 0, 0, 0, 0]","[0, 0, 0, 0, 0, 0, 0, 0, 0, 0, 0, 0, 0, 0, 0, 0, 0, 0, 2, 4, 7, 13, 22, 36, 54, 79, 104, 129, 153, 176, 197, 218, 233, 247, 256, 265, 271, 276, 281, 287, 292, 299, 306, 311, 317, 322, 325, 328, 330, 332, 333, 333, 333, 333, 333, 333]","[0, 0, 0, 0, 0, 0, 0, 0, 0, 0, 0, 0, 0, 0, 0, 0, 0, 0, 0, 0, 0, 0, 0, 0, 0, 0]","[0, 0, 0, 0, 0, 0, 0, 0, 0, 0, 0, 0, 0, 0, 0, 0, 0, 0, 0, 0, 0, 0, 0, 1, 3, 6, 9, 12, 13, 14, 15, 16, 17, 18, 18, 18, 18, 18, 18, 18, 18, 18, 17, 16, 16, 15, 15, 14, 13, 13, 13, 13, 13, 13, 13, 13]"
"100","100","710.392857143","710.392857143","black","no","prac","2","legacy","legacy","b.png","w.png","w.png","w.png","1","legacy","0","relative","1","undefined","NA","blue","NA","undefined","1","undefined","undefined","blue","3","0","3","0","27","0","NA","27","27","27","27","27","0","27","27","27","27","0","4","NA","NA","27","0","0","0","0","0","0","0","27","11/05/20 11:01:31","Default description","yes","simont_HV.osexp","C:\Users\admin\Desktop\임채은\!MouseTracking_final","no","sans","no","18","no","black","no","yes","768","200","None","200","None","legacy","27","27","2","C:/Users/admin/Desktop/임채은/!MouseTracking_final/subject-28.csv","legacy","2","1","2","Kafkaesque Koffka","3.2.6","0","blue","space","NA","None","blue","start","space","NA","NA","NA","NA","712","86189","NA","250","712","312","21629","NA","NA","NA","NA","2","legacy","1024","2","48000","-16","experiment","28","even","legacy","red","green","blue","yellow","2","23076","NA","NA","191761","1441","NA","190292","190796","191048","189978","NA","1445","191767","192767","190796","191048","NA","NA","NA","NA","189977","NA","NA","NA","NA","NA","NA","109266","189976","[190797.0, 190807.0, 190817.0, 190827.0, 190837.0, 190847.0, 190857.0, 190867.0, 190877.0, 190887.0, 190897.0, 190907.0, 190917.0, 190927.0, 190937.0, 190947.0, 190957.0, 190967.0, 190977.0, 190987.0, 190997.0, 191007.0, 191017.0, 191027.0, 191037.0, 191047.0]","[191048.0, 191058.0, 191068.0, 191078.0, 191088.0, 191098.0, 191108.0, 191118.0, 191128.0, 191138.0, 191148.0, 191158.0, 191168.0, 191178.0, 191188.0, 191198.0, 191208.0, 191218.0, 191228.0, 191238.0, 191248.0, 191258.0, 191268.0, 191278.0, 191288.0, 191298.0, 191308.0, 191318.0, 191328.0, 191338.0, 191348.0, 191358.0, 191368.0, 191378.0, 191388.0, 191398.0, 191408.0, 191418.0, 191428.0, 191438.0, 191448.0, 191458.0, 191468.0, 191478.0, 191488.0, 191498.0, 191508.0, 191518.0, 191528.0, 191538.0, 191548.0, 191558.0, 191568.0, 191578.0, 191588.0, 191598.0, 191608.0, 191618.0, 191628.0, 191638.0, 191648.0, 191658.0, 191668.0, 191678.0, 191688.0, 191698.0, 191708.0, 191718.0, 191728.0, 191738.0, 191748.0, 191758.0, 191760]","example_experiment","28","19891","28","yes","768","4","[0, 0, 0, 0, 0, 0, 0, 0, 0, 0, 0, 0, 0, 0, 0, 0, 0, 0, 0, 0, 0, 0, 0, 0, 0, 0]","[0, 0, 0, 0, 0, 0, 0, 0, 0, 0, 0, 0, 0, 0, 0, 0, 0, 0, 0, 0, 0, -1, -1, -1, -1, -1, -1, -1, -1, -1, -2, -2, -3, -3, -1, -1, -1, -3, -7, -10, -13, -16, -19, -22, -25, -28, -30, -32, -33, -35, -35, -36, -36, -36, -36, -36, -35, -33, -32, -29, -26, -23, -20, -18, -15, -13, -11, -8, -7, -7, -6, -6, -6]","[0, 0, 0, 0, 0, 0, 0, 0, 0, 0, 0, 0, 0, 0, 0, 0, 0, 0, 0, 0, 0, 0, 0, 0, 0, 0]","[0, 0, 0, 0, 0, 0, 0, 0, 0, 0, 0, 0, 0, 0, 0, 0, 0, 0, 0, 0, 0, 1, 2, 2, 3, 3, 3, 3, 3, 3, 0, -5, -10, -20, -33, -49, -67, -88, -110, -130, -148, -166, -181, -196, -212, -223, -231, -238, -244, -249, -254, -260, -264, -267, -270, -272, -274, -276, -278, -280, -283, -286, -289, -292, -295, -299, -302, -304, -306, -306, -306, -306, -306]"
"100","100","716.793103448","716.793103448","black","no","prac","4","legacy","legacy","b.png","w.png","w.png","w.png","1","legacy","0","relative","1","undefined","NA","blue","NA","undefined","1","undefined","undefined","blue","3","0","3","0","28","0","NA","28","28","28","28","28","0","28","28","28","28","0","4","NA","NA","28","0","0","0","0","0","0","0","28","11/05/20 11:01:31","Default description","yes","simont_HV.osexp","C:\Users\admin\Desktop\임채은\!MouseTracking_final","no","sans","no","18","no","black","no","yes","768","350","None","350","None","legacy","28","28","2","C:/Users/admin/Desktop/임채은/!MouseTracking_final/subject-28.csv","legacy","2","2","2","Kafkaesque Koffka","3.2.6","0","blue","space","NA","None","blue","start","space","NA","NA","NA","NA","896","86189","NA","250","896","362","21629","NA","NA","NA","NA","2","legacy","1024","2","48000","-16","experiment","28","even","legacy","red","green","blue","yellow","2","23076","NA","NA","194907","1441","NA","193254","193758","194010","192890","NA","1445","194927","195927","193758","194010","NA","NA","NA","NA","192890","NA","NA","NA","NA","NA","NA","109266","192889","[193759.0, 193769.0, 193779.0, 193789.0, 193799.0, 193809.0, 193819.0, 193829.0, 193839.0, 193849.0, 193859.0, 193869.0, 193879.0, 193889.0, 193899.0, 193909.0, 193919.0, 193929.0, 193939.0, 193949.0, 193959.0, 193969.0, 193979.0, 193989.0, 193999.0, 194009.0]","[194010.0, 194020.0, 194030.0, 194040.0, 194050.0, 194060.0, 194070.0, 194080.0, 194090.0, 194100.0, 194110.0, 194120.0, 194130.0, 194140.0, 194150.0, 194160.0, 194170.0, 194180.0, 194190.0, 194200.0, 194210.0, 194220.0, 194230.0, 194240.0, 194250.0, 194260.0, 194270.0, 194280.0, 194290.0, 194300.0, 194310.0, 194320.0, 194330.0, 194340.0, 194350.0, 194360.0, 194370.0, 194380.0, 194390.0, 194400.0, 194410.0, 194420.0, 194430.0, 194440.0, 194450.0, 194460.0, 194470.0, 194480.0, 194490.0, 194500.0, 194510.0, 194520.0, 194530.0, 194540.0, 194550.0, 194560.0, 194570.0, 194580.0, 194590.0, 194600.0, 194610.0, 194620.0, 194630.0, 194640.0, 194650.0, 194660.0, 194670.0, 194680.0, 194690.0, 194700.0, 194710.0, 194720.0, 194730.0, 194740.0, 194750.0, 194760.0, 194770.0, 194780.0, 194790.0, 194800.0, 194810.0, 194820.0, 194830.0, 194840.0, 194850.0, 194860.0, 194870.0, 194880.0, 194890.0, 194900.0, 194906]","example_experiment","29","20787","29","yes","768","4","[0, 0, 0, 0, 0, 0, 0, 0, 0, 0, 0, 0, 0, 0, 0, 0, 0, 0, 0, 0, 0, 0, 0, 0, 0, 0]","[0, 0, 0, 0, 0, 0, 0, 0, 0, 0, 0, 0, 0, 0, 0, 0, 0, 0, 0, 0, 0, 0, 0, 0, 0, 0, 0, 0, 0, 0, 0, 0, 0, 0, 0, 0, -1, -2, -3, -4, -4, -4, -4, -4, -4, -4, -2, 1, 4, 9, 12, 13, 13, 10, 6, 4, 2, 0, 0, -1, -1, -2, -2, -3, -3, -3, -4, -4, -4, -4, -4, -4, -4, -4, -4, -4, -4, -4, -4, -4, -4, -4, -4, -4, -4, -4, -4, -4, -4, -4, -4]","[0, 0, 0, 0, 0, 0, 0, 0, 0, 0, 0, 0, 0, 0, 0, 0, 0, 0, 0, 0, 0, 0, 0, 0, 0, 0]","[0, 0, 0, 0, 0, 0, 0, 0, 0, 0, 0, 0, 0, 0, 0, 0, 0, 0, 0, 0, 0, 0, 0, 0, 0, 0, 0, 0, 0, 0, 0, 0, 0, 0, 0, 0, 3, 7, 11, 14, 17, 17, 17, 17, 17, 14, 7, -2, -15, -34, -57, -82, -113, -141, -163, -180, -194, -203, -211, -218, -223, -229, -232, -236, -239, -241, -244, -246, -248, -250, -251, -252, -254, -255, -257, -260, -264, -266, -270, -273, -276, -279, -282, -285, -288, -292, -296, -299, -301, -302, -302]"
"100","100","715.9","715.9","black","no","prac","3","legacy","legacy","w.png","w.png","g.png","w.png","2","legacy","0","relative","1","undefined","NA","green","NA","undefined","1","undefined","undefined","green","2","0","3","0","29","0","NA","29","29","29","29","29","0","29","29","29","29","0","4","NA","NA","29","0","0","0","0","0","0","0","29","11/05/20 11:01:31","Default description","yes","simont_HV.osexp","C:\Users\admin\Desktop\임채은\!MouseTracking_final","no","sans","no","18","no","black","no","yes","768","230","None","230","None","legacy","29","29","2","C:/Users/admin/Desktop/임채은/!MouseTracking_final/subject-28.csv","legacy","1","2","2","Kafkaesque Koffka","3.2.6","0","green","space","NA","None","green","start","space","NA","NA","NA","NA","690","86189","NA","250","690","324","21629","NA","NA","NA","NA","2","legacy","1024","2","48000","-16","experiment","28","even","legacy","red","green","blue","yellow","1","23076","NA","NA","197837","1441","NA","196390","196894","197146","196064","NA","1445","197847","198847","196894","197146","NA","NA","NA","NA","196064","NA","NA","NA","NA","NA","NA","109266","196063","[196895.0, 196905.0, 196915.0, 196925.0, 196935.0, 196945.0, 196955.0, 196965.0, 196975.0, 196985.0, 196995.0, 197005.0, 197015.0, 197025.0, 197035.0, 197045.0, 197055.0, 197065.0, 197075.0, 197085.0, 197095.0, 197105.0, 197115.0, 197125.0, 197135.0, 197145.0]","[197146.0, 197156.0, 197166.0, 197176.0, 197186.0, 197196.0, 197206.0, 197216.0, 197226.0, 197236.0, 197246.0, 197256.0, 197266.0, 197276.0, 197286.0, 197296.0, 197306.0, 197316.0, 197326.0, 197336.0, 197346.0, 197356.0, 197366.0, 197376.0, 197386.0, 197396.0, 197406.0, 197416.0, 197426.0, 197436.0, 197446.0, 197456.0, 197466.0, 197476.0, 197486.0, 197496.0, 197506.0, 197516.0, 197526.0, 197536.0, 197546.0, 197556.0, 197566.0, 197576.0, 197586.0, 197596.0, 197606.0, 197616.0, 197626.0, 197636.0, 197646.0, 197656.0, 197666.0, 197676.0, 197686.0, 197696.0, 197706.0, 197716.0, 197726.0, 197736.0, 197746.0, 197756.0, 197766.0, 197776.0, 197786.0, 197796.0, 197806.0, 197816.0, 197826.0, 197836.0, 197836]","example_experiment","30","21477","30","yes","768","3","[0, 0, 0, 0, 0, 0, 0, 0, 0, 0, 0, 0, 0, 0, 0, 0, 0, 0, 0, 0, 0, 0, 0, 0, 0, 0]","[0, 0, 0, 0, 0, 0, 0, 0, 0, 0, 0, 0, 0, 0, 0, 0, 0, 0, 0, 0, 0, 0, 0, 0, 1, 6, 14, 26, 40, 58, 79, 105, 128, 150, 175, 195, 215, 229, 240, 247, 250, 251, 251, 251, 251, 251, 251, 251, 251, 251, 253, 256, 258, 261, 265, 269, 275, 281, 288, 296, 301, 306, 308, 309, 310, 311, 312, 313, 313, 313, 313]","[0, 0, 0, 0, 0, 0, 0, 0, 0, 0, 0, 0, 0, 0, 0, 0, 0, 0, 0, 0, 0, 0, 0, 0, 0, 0]","[0, 0, 0, 0, 0, 0, 0, 0, 0, 0, 0, 0, 0, 0, 0, 0, 0, 0, 0, 0, 0, 0, 0, 0, -1, -1, -1, -2, -3, -3, -3, -3, -3, -3, -3, -3, -3, -3, -3, -3, -3, -3, -3, -3, -3, -3, -3, -3, -3, -3, -3, -3, -3, -3, -3, -1, -1, 0, 2, 3, 4, 5, 5, 5, 5, 5, 5, 5, 5, 5, 5]"
"100","100","713.419354839","713.419354839","black","no","block1","0","legacy","legacy","w.png","r.png","w.png","w.png","1","legacy","0","relative","1","undefined","NA","red","NA","undefined","1","undefined","undefined","red","1","0","3","0","30","0","NA","30","30","30","30","30","0","30","30","30","30","0","4","NA","NA","30","0","0","0","0","0","0","0","30","11/05/20 11:01:31","Default description","yes","simont_HV.osexp","C:\Users\admin\Desktop\임채은\!MouseTracking_final","no","sans","no","18","no","black","no","yes","768","110","None","110","None","legacy","0","29","1","C:/Users/admin/Desktop/임채은/!MouseTracking_final/subject-28.csv","legacy","1","0","0","Kafkaesque Koffka","3.2.6","0","red","space","NA","None","red","start","space","space","NA","NA","NA","639","86189","NA","250","639","759","21629","60801","NA","NA","NA","2","legacy","1024","2","48000","-16","experiment","28","even","legacy","red","green","blue","yellow","1","23076","NA","NA","261909","1441","NA","260513","261017","261269","259752","NA","1445","261917","262917","261017","261269","198888","NA","NA","NA","259752","259689","NA","NA","NA","NA","NA","109266","259751","[261018.0, 261028.0, 261038.0, 261048.0, 261058.0, 261068.0, 261078.0, 261088.0, 261098.0, 261108.0, 261118.0, 261128.0, 261138.0, 261148.0, 261158.0, 261168.0, 261178.0, 261188.0, 261198.0, 261208.0, 261218.0, 261228.0, 261238.0, 261248.0, 261258.0, 261268.0]","[261269.0, 261279.0, 261289.0, 261299.0, 261309.0, 261319.0, 261329.0, 261339.0, 261349.0, 261359.0, 261369.0, 261379.0, 261389.0, 261399.0, 261409.0, 261419.0, 261429.0, 261439.0, 261449.0, 261459.0, 261469.0, 261479.0, 261489.0, 261499.0, 261509.0, 261519.0, 261529.0, 261539.0, 261549.0, 261559.0, 261569.0, 261579.0, 261589.0, 261599.0, 261609.0, 261619.0, 261629.0, 261639.0, 261649.0, 261659.0, 261669.0, 261679.0, 261689.0, 261699.0, 261709.0, 261719.0, 261729.0, 261739.0, 261749.0, 261759.0, 261769.0, 261779.0, 261789.0, 261799.0, 261809.0, 261819.0, 261829.0, 261839.0, 261849.0, 261859.0, 261869.0, 261879.0, 261889.0, 261899.0, 261908]","example_experiment","31","22116","31","yes","768","0","[0, 0, 0, 0, 0, 0, 0, 0, 0, 0, 0, 0, 0, 0, 0, 0, 0, 0, 0, 0, 0, 0, 0, 0, 0, 0]","[0, 0, 0, 0, 0, 0, 0, 0, 0, 0, 0, 0, -5, -14, -24, -36, -49, -59, -68, -74, -80, -87, -95, -105, -115, -125, -133, -140, -149, -156, -163, -168, -173, -177, -182, -188, -194, -201, -205, -211, -216, -222, -230, -239, -247, -254, -260, -264, -269, -274, -280, -286, -292, -298, -303, -306, -308, -310, -311, -312, -313, -314, -314, -314, -314]","[0, 0, 0, 0, 0, 0, 0, 0, 0, 0, 0, 0, 0, 0, 0, 0, 0, 0, 0, 0, 0, 0, 0, 0, 0, 0]","[0, 0, 0, 0, 0, 0, 0, 0, 0, 0, 0, 0, 0, 2, 4, 5, 6, 7, 7, 8, 9, 11, 14, 15, 15, 15, 15, 15, 15, 15, 15, 14, 13, 12, 10, 9, 7, 7, 6, 6, 6, 6, 6, 8, 10, 12, 14, 15, 16, 16, 16, 17, 17, 17, 17, 17, 17, 17, 17, 17, 16, 15, 15, 15, 15]"
"100","100","708.71875","708.71875","black","no","block1","0","legacy","legacy","w.png","w.png","w.png","b.png","1","legacy","0","relative","1","undefined","NA","blue","NA","undefined","1","undefined","undefined","blue","3","0","3","0","31","0","NA","31","31","31","31","31","0","31","31","31","31","0","4","NA","NA","31","0","0","0","0","0","0","0","31","11/05/20 11:01:31","Default description","yes","simont_HV.osexp","C:\Users\admin\Desktop\임채은\!MouseTracking_final","no","sans","no","18","no","black","no","yes","768","120","None","120","None","legacy","1","29","1","C:/Users/admin/Desktop/임채은/!MouseTracking_final/subject-28.csv","legacy","1","1","0","Kafkaesque Koffka","3.2.6","0","blue","space","NA","None","blue","start","space","space","NA","NA","NA","563","86189","NA","250","563","462","21629","60801","NA","NA","NA","2","legacy","1024","2","48000","-16","experiment","28","even","legacy","red","green","blue","yellow","2","23076","NA","NA","264816","1441","NA","263496","264000","264252","263032","NA","1445","264837","265837","264000","264252","198888","NA","NA","NA","263032","259689","NA","NA","NA","NA","NA","109266","263031","[264001.0, 264011.0, 264021.0, 264031.0, 264041.0, 264051.0, 264061.0, 264071.0, 264081.0, 264091.0, 264101.0, 264111.0, 264121.0, 264131.0, 264141.0, 264151.0, 264161.0, 264171.0, 264181.0, 264191.0, 264201.0, 264211.0, 264221.0, 264231.0, 264241.0, 264251.0]","[264252.0, 264262.0, 264272.0, 264282.0, 264292.0, 264302.0, 264312.0, 264322.0, 264332.0, 264342.0, 264352.0, 264362.0, 264372.0, 264382.0, 264392.0, 264402.0, 264412.0, 264422.0, 264432.0, 264442.0, 264452.0, 264462.0, 264472.0, 264482.0, 264492.0, 264502.0, 264512.0, 264522.0, 264532.0, 264542.0, 264552.0, 264562.0, 264572.0, 264582.0, 264592.0, 264602.0, 264612.0, 264622.0, 264632.0, 264642.0, 264652.0, 264662.0, 264672.0, 264682.0, 264692.0, 264702.0, 264712.0, 264722.0, 264732.0, 264742.0, 264752.0, 264762.0, 264772.0, 264782.0, 264792.0, 264802.0, 264812.0, 264815]","example_experiment","32","22679","32","yes","768","0","[0, 0, 0, 0, 0, 0, 0, 0, 0, 0, 0, 0, 0, 0, 0, 0, 0, 0, 0, 0, 0, 0, 0, 0, 0, 0]","[0, 0, 0, 0, 0, 0, 0, 0, 0, 0, 0, 0, 0, 0, 0, 0, 1, 1, 2, 3, 3, 4, 4, 4, 4, 4, 5, 5, 6, 7, 9, 10, 10, 10, 10, 10, 10, 9, 8, 6, 4, 3, 1, 0, -1, -2, -3, -3, -4, -5, -5, -5, -5, -5, -5, -5, -5, -5]","[0, 0, 0, 0, 0, 0, 0, 0, 0, 0, 0, 0, 0, 0, 0, 0, 0, 0, 0, 0, 0, 0, 0, 0, 0, 0]","[0, 0, 0, 0, 0, 0, 0, 0, 0, 0, 0, 0, 0, -1, -3, -6, -10, -13, -16, -19, -20, -22, -22, -23, -24, -27, -32, -38, -47, -60, -76, -96, -121, -145, -172, -199, -221, -237, -253, -264, -275, -283, -289, -294, -299, -303, -306, -308, -309, -310, -310, -311, -311, -311, -311, -311, -311, -311]"
"100","100","702.060606061","702.060606061","black","no","block1","1","legacy","legacy","w.png","r.png","w.png","w.png","1","legacy","0","relative","1","undefined","NA","red","NA","undefined","1","undefined","undefined","red","1","0","3","0","32","0","NA","32","32","32","32","32","0","32","32","32","32","0","4","NA","NA","32","0","0","0","0","0","0","0","32","11/05/20 11:01:31","Default description","yes","simont_HV.osexp","C:\Users\admin\Desktop\임채은\!MouseTracking_final","no","sans","no","18","no","black","no","yes","768","160","None","160","None","legacy","2","29","1","C:/Users/admin/Desktop/임채은/!MouseTracking_final/subject-28.csv","legacy","1","1","1","Kafkaesque Koffka","3.2.6","0","red","space","NA","None","red","start","space","space","NA","NA","NA","489","86189","NA","250","489","346","21629","60801","NA","NA","NA","2","legacy","1024","2","48000","-16","experiment","28","even","legacy","red","green","blue","yellow","1","23076","NA","NA","267560","1441","NA","266314","266818","267070","265966","NA","1445","267567","268567","266818","267070","198888","NA","NA","NA","265966","259689","NA","NA","NA","NA","NA","109266","265965","[266819.0, 266829.0, 266839.0, 266849.0, 266859.0, 266869.0, 266879.0, 266889.0, 266899.0, 266909.0, 266919.0, 266929.0, 266939.0, 266949.0, 266959.0, 266969.0, 266979.0, 266989.0, 266999.0, 267009.0, 267019.0, 267029.0, 267039.0, 267049.0, 267059.0, 267069.0]","[267070.0, 267080.0, 267090.0, 267100.0, 267110.0, 267120.0, 267130.0, 267140.0, 267150.0, 267160.0, 267170.0, 267180.0, 267190.0, 267200.0, 267210.0, 267220.0, 267230.0, 267240.0, 267250.0, 267260.0, 267270.0, 267280.0, 267290.0, 267300.0, 267310.0, 267320.0, 267330.0, 267340.0, 267350.0, 267360.0, 267370.0, 267380.0, 267390.0, 267400.0, 267410.0, 267420.0, 267430.0, 267440.0, 267450.0, 267460.0, 267470.0, 267480.0, 267490.0, 267500.0, 267510.0, 267520.0, 267530.0, 267540.0, 267550.0, 267559]","example_experiment","33","23168","33","yes","768","1","[0, 0, 0, 0, 0, 0, 0, 0, 0, 0, 0, 0, 0, 0, 0, 0, 0, 0, 0, 0, 0, 0, 0, 0, 0, 0]","[0, 0, 0, 0, 0, 0, 0, 0, 0, 0, 0, 0, 0, 0, 0, 0, 0, -2, -7, -20, -40, -67, -97, -126, -159, -185, -211, -232, -250, -266, -278, -288, -295, -300, -303, -304, -305, -306, -307, -309, -310, -313, -315, -316, -317, -317, -317, -317, -317, -317]","[0, 0, 0, 0, 0, 0, 0, 0, 0, 0, 0, 0, 0, 0, 0, 0, 0, 0, 0, 0, 0, 0, 0, 0, 0, 0]","[0, 0, 0, 0, 0, 0, 0, 0, 0, 0, 0, 0, 0, 0, 0, 0, 0, 0, 1, 3, 7, 12, 16, 18, 21, 22, 22, 22, 22, 20, 19, 17, 16, 15, 14, 14, 13, 13, 11, 11, 10, 8, 7, 7, 6, 6, 6, 6, 6, 6]"
