"acc","accuracy","average_response_time","avg_rt","background","bidi","block","btwC","canvas_backend","clock_backend","colD","colL","colR","colU","color","color_backend","compensation","coordinates","correct","correct_answerins","correct_button_get_response_bef","correct_button_get_response_pos","correct_button_get_start_click","correct_get_response_bef","correct_get_response_pos","correct_get_start_click","correct_instructions","correct_resp","correctkey","count_answerins","count_break1","count_break3","count_correct_f","count_experiment","count_feedback","count_fixation500s","count_get_response_bef","count_get_response_pos","count_get_start_click","count_incorrect_f","count_instructions","count_iti1000","count_logger","count_present_stimulus","count_present_stimulus2","count_start_gogo","count_start_gogo_1","count_start_gogo_1_1","count_start_gogo_1_2","count_start_screen","count_stimuli1","count_stimuli2","count_stimuli3","count_stimuli4","count_stimuli5","count_stimuli6","count_stimuli_prac","count_trial","datetime","description","disable_garbage_collection","experiment_file","experiment_path","font_bold","font_family","font_italic","font_size","font_underline","foreground","form_clicks","fullscreen","height","initiation_time","initiation_time_get_response_bef","initiation_time_get_response_pos","initiation_time_get_start_click","keyboard_backend","live_row","live_row_stimuli_prac","loc","logfile","mouse_backend","n0","n1","n2","opensesame_codename","opensesame_version","repeat_cycle","response","response_answerins","response_feedback","response_get_response_bef","response_get_response_pos","response_get_start_click","response_instructions","response_start_gogo","response_start_gogo_1","response_start_gogo_1_1","response_start_gogo_1_2","response_time","response_time_answerins","response_time_feedback","response_time_get_response_bef","response_time_get_response_pos","response_time_get_start_click","response_time_instructions","response_time_start_gogo","response_time_start_gogo_1","response_time_start_gogo_1_1","response_time_start_gogo_1_2","round_decimals","sampler_backend","sound_buf_size","sound_channels","sound_freq","sound_sample_size","start","subject_nr","subject_parity","synth_backend","tar1L","tar2R","tar3U","tar4D","taskType","time_answerins","time_break1","time_break3","time_correct_f","time_experiment","time_feedback","time_fixation500s","time_get_response_bef","time_get_response_pos","time_get_start_click","time_incorrect_f","time_instructions","time_iti1000","time_logger","time_present_stimulus","time_present_stimulus2","time_start_gogo","time_start_gogo_1","time_start_gogo_1_1","time_start_gogo_1_2","time_start_screen","time_stimuli1","time_stimuli2","time_stimuli3","time_stimuli4","time_stimuli5","time_stimuli6","time_stimuli_prac","time_trial","timestamps_get_response_bef","timestamps_get_response_pos","title","total_correct","total_response_time","total_responses","uniform_coordinates","width","withC","xpos_get_response_bef","xpos_get_response_pos","ypos_get_response_bef","ypos_get_response_pos"
"undefined","undefined","undefined","undefined","black","no","prac","0","legacy","legacy","w.png","w.png","r.png","w.png","1","legacy","0","relative","undefined","undefined","NA","NA","NA","NA","NA","undefined","undefined","red","1","0","3","0","0","0","NA","0","0","0","0","0","0","0","0","0","0","0","4","NA","NA","0","0","0","0","0","0","0","0","0","11/02/20 14:34:04","Default description","yes","simont_HV.osexp","C:\Users\admin\Desktop\채은\!MouseTracking_final","no","sans","no","18","no","black","no","yes","768","0","NA","NA","0","legacy","0","0","2","C:/Users/admin/Desktop/채은/!MouseTracking_final/subject-16.csv","legacy","2","0","0","Kafkaesque Koffka","3.2.6","0","None","space","NA","NA","NA","None","space","NA","NA","NA","NA","1500","75440","NA","NA","NA","1500","27902","NA","NA","NA","NA","2","legacy","1024","2","48000","-16","experiment","16","even","legacy","red","green","blue","yellow","1","30333","NA","NA","NA","2425","NA","NA","NA","NA","105841","107347","2429","107484","108484","NA","NA","NA","NA","NA","NA","105841","NA","NA","NA","NA","NA","NA","105773","105840","NA","NA","example_experiment","0","0","0","yes","768","0","NA","NA","NA","NA"
"undefined","undefined","undefined","undefined","black","no","prac","0","legacy","legacy","w.png","w.png","w.png","b.png","1","legacy","0","relative","undefined","undefined","NA","NA","NA","NA","NA","undefined","undefined","blue","3","0","3","0","1","0","NA","1","1","1","1","1","0","1","1","1","1","0","4","NA","NA","1","0","0","0","0","0","0","0","1","11/02/20 14:34:04","Default description","yes","simont_HV.osexp","C:\Users\admin\Desktop\채은\!MouseTracking_final","no","sans","no","18","no","black","no","yes","768","81","NA","NA","81","legacy","1","1","1","C:/Users/admin/Desktop/채은/!MouseTracking_final/subject-16.csv","legacy","1","2","0","Kafkaesque Koffka","3.2.6","0","None","space","NA","NA","NA","None","space","NA","NA","NA","NA","1500","75440","NA","NA","NA","1500","27902","NA","NA","NA","NA","2","legacy","1024","2","48000","-16","experiment","16","even","legacy","red","green","blue","yellow","2","30333","NA","NA","NA","2425","NA","NA","NA","NA","108603","110103","2429","110254","111254","NA","NA","NA","NA","NA","NA","108603","NA","NA","NA","NA","NA","NA","105773","108602","NA","NA","example_experiment","0","0","0","yes","768","0","NA","NA","NA","NA"
"100","100","923","923","black","no","prac","2","legacy","legacy","w.png","g.png","w.png","w.png","2","legacy","0","relative","1","undefined","NA","green","NA","undefined","1","undefined","undefined","green","2","0","3","0","2","0","NA","2","2","2","2","2","0","2","2","2","2","0","4","NA","NA","2","0","0","0","0","0","0","0","2","11/02/20 14:34:04","Default description","yes","simont_HV.osexp","C:\Users\admin\Desktop\채은\!MouseTracking_final","no","sans","no","18","no","black","no","yes","768","90","10","90","60","legacy","2","2","1","C:/Users/admin/Desktop/채은/!MouseTracking_final/subject-16.csv","legacy","2","1","2","Kafkaesque Koffka","3.2.6","0","green","space","NA","None","green","start","space","NA","NA","NA","NA","923","75440","NA","250","923","676","27902","NA","NA","NA","NA","2","legacy","1024","2","48000","-16","experiment","16","even","legacy","red","green","blue","yellow","1","30333","NA","NA","113721","2425","NA","112042","112546","112798","111365","110103","2429","113734","114734","112546","112798","NA","NA","NA","NA","111365","NA","NA","NA","NA","NA","NA","105773","111363","[112547.0, 112557.0, 112567.0, 112577.0, 112587.0, 112597.0, 112607.0, 112617.0, 112627.0, 112637.0, 112647.0, 112657.0, 112667.0, 112677.0, 112687.0, 112697.0, 112707.0, 112717.0, 112727.0, 112737.0, 112747.0, 112757.0, 112767.0, 112777.0, 112787.0, 112797.0]","[112798.0, 112808.0, 112818.0, 112828.0, 112838.0, 112848.0, 112858.0, 112868.0, 112878.0, 112888.0, 112898.0, 112908.0, 112918.0, 112928.0, 112938.0, 112948.0, 112958.0, 112968.0, 112978.0, 112988.0, 112998.0, 113008.0, 113018.0, 113028.0, 113038.0, 113048.0, 113058.0, 113068.0, 113078.0, 113088.0, 113098.0, 113108.0, 113118.0, 113128.0, 113138.0, 113148.0, 113158.0, 113168.0, 113178.0, 113188.0, 113198.0, 113208.0, 113218.0, 113228.0, 113238.0, 113248.0, 113258.0, 113268.0, 113278.0, 113288.0, 113298.0, 113308.0, 113318.0, 113328.0, 113338.0, 113348.0, 113358.0, 113368.0, 113378.0, 113388.0, 113398.0, 113408.0, 113418.0, 113428.0, 113438.0, 113448.0, 113458.0, 113468.0, 113478.0, 113488.0, 113498.0, 113508.0, 113518.0, 113528.0, 113538.0, 113548.0, 113558.0, 113568.0, 113578.0, 113588.0, 113598.0, 113608.0, 113618.0, 113628.0, 113638.0, 113648.0, 113658.0, 113668.0, 113678.0, 113688.0, 113698.0, 113708.0, 113718.0, 113721]","example_experiment","1","923","1","yes","768","4","[0, 0, -2, -4, -8, -12, -17, -21, -26, -32, -38, -44, -50, -56, -61, -67, -73, -79, -85, -91, -95, -98, -100, -100, -100, -100]","[-100, -100, -100, -100, -100, -100, -100, -100, -100, -100, -99, -99, -99, -99, -98, -98, -98, -98, -97, -96, -96, -95, -95, -94, -92, -90, -87, -82, -75, -64, -51, -32, -14, 7, 29, 54, 77, 100, 120, 137, 151, 165, 172, 177, 180, 180, 180, 180, 180, 180, 180, 180, 180, 180, 181, 181, 182, 184, 188, 194, 202, 215, 232, 256, 279, 301, 323, 339, 348, 352, 352, 352, 352, 352, 352, 352, 352, 352, 352, 352, 352, 352, 352, 352, 352, 352, 352, 352, 350, 348, 346, 344, 343, 342]","[0, 0, 0, 2, 3, 5, 7, 9, 10, 11, 12, 13, 14, 14, 15, 15, 15, 15, 15, 15, 15, 15, 15, 14, 14, 14]","[14, 14, 14, 14, 14, 14, 14, 14, 14, 14, 14, 14, 14, 14, 14, 14, 14, 14, 13, 13, 13, 13, 13, 13, 12, 12, 10, 10, 9, 7, 5, 2, 1, -1, -2, -3, -3, -3, -3, -3, -3, -3, -3, -3, -3, -3, -3, -3, -3, -3, -3, -3, -3, -3, -3, -2, -2, -2, -1, 0, 1, 1, 2, 3, 4, 5, 5, 5, 5, 5, 5, 5, 5, 5, 5, 5, 5, 5, 5, 5, 5, 5, 5, 5, 5, 5, 5, 5, 5, 6, 6, 6, 7, 7]"
"100","100","806.5","806.5","black","no","prac","3","legacy","legacy","w.png","w.png","w.png","b.png","1","legacy","0","relative","1","undefined","NA","blue","NA","undefined","1","undefined","undefined","blue","3","0","3","0","3","0","NA","3","3","3","3","3","0","3","3","3","3","0","4","NA","NA","3","0","0","0","0","0","0","0","3","11/02/20 14:34:04","Default description","yes","simont_HV.osexp","C:\Users\admin\Desktop\채은\!MouseTracking_final","no","sans","no","18","no","black","no","yes","768","150","None","150","None","legacy","3","3","1","C:/Users/admin/Desktop/채은/!MouseTracking_final/subject-16.csv","legacy","1","2","1","Kafkaesque Koffka","3.2.6","0","blue","space","NA","None","blue","start","space","NA","NA","NA","NA","690","75440","NA","250","690","787","27902","NA","NA","NA","NA","2","legacy","1024","2","48000","-16","experiment","16","even","legacy","red","green","blue","yellow","2","30333","NA","NA","117104","2425","NA","115658","116162","116414","114870","110103","2429","117123","118123","116162","116414","NA","NA","NA","NA","114870","NA","NA","NA","NA","NA","NA","105773","114869","[116163.0, 116173.0, 116183.0, 116193.0, 116203.0, 116213.0, 116223.0, 116233.0, 116243.0, 116253.0, 116263.0, 116273.0, 116283.0, 116293.0, 116303.0, 116313.0, 116323.0, 116333.0, 116343.0, 116353.0, 116363.0, 116373.0, 116383.0, 116393.0, 116403.0, 116413.0]","[116414.0, 116424.0, 116434.0, 116444.0, 116454.0, 116464.0, 116474.0, 116484.0, 116494.0, 116504.0, 116514.0, 116524.0, 116534.0, 116544.0, 116554.0, 116564.0, 116574.0, 116584.0, 116594.0, 116604.0, 116614.0, 116624.0, 116634.0, 116644.0, 116654.0, 116664.0, 116674.0, 116684.0, 116694.0, 116704.0, 116714.0, 116724.0, 116734.0, 116744.0, 116754.0, 116764.0, 116774.0, 116784.0, 116794.0, 116804.0, 116814.0, 116824.0, 116834.0, 116844.0, 116854.0, 116864.0, 116874.0, 116884.0, 116894.0, 116904.0, 116914.0, 116924.0, 116934.0, 116944.0, 116954.0, 116964.0, 116974.0, 116984.0, 116994.0, 117004.0, 117014.0, 117024.0, 117034.0, 117044.0, 117054.0, 117064.0, 117074.0, 117084.0, 117094.0, 117104.0, 117104]","example_experiment","2","1613","2","yes","768","1","[0, 0, 0, 0, 0, 0, 0, 0, 0, 0, 0, 0, 0, 0, 0, 0, 0, 0, 0, 0, 0, 0, 0, 0, 0, 0]","[0, 0, 0, 0, 0, 0, 0, 0, 0, 0, 0, 0, 0, 0, 0, 0, 1, 1, 2, 2, 3, 3, 3, 3, 3, 4, 4, 4, 5, 5, 4, 2, 0, -3, -6, -8, -11, -13, -16, -19, -19, -19, -19, -18, -18, -18, -18, -18, -18, -18, -18, -18, -17, -16, -15, -14, -12, -11, -8, -7, -5, -3, -1, 0, 1, 3, 3, 3, 3, 3, 3]","[0, 0, 0, 0, 0, 0, 0, 0, 0, 0, 0, 0, 0, 0, 0, 0, 0, 0, 0, 0, 0, 0, 0, 0, 0, 0]","[0, 0, 0, 0, 0, 0, 0, 0, 0, 0, 0, 0, 0, 0, 0, 0, -2, -4, -7, -10, -14, -20, -27, -33, -41, -49, -60, -75, -95, -119, -141, -164, -183, -199, -214, -225, -240, -251, -259, -265, -270, -274, -278, -282, -285, -286, -288, -288, -289, -289, -291, -292, -294, -296, -299, -301, -304, -306, -308, -310, -312, -313, -315, -316, -317, -319, -319, -320, -320, -320, -320]"
"100","100","768.666666667","768.666666667","black","no","prac","1","legacy","legacy","w.png","w.png","g.png","w.png","2","legacy","0","relative","1","undefined","NA","green","NA","undefined","1","undefined","undefined","green","2","0","3","0","4","0","NA","4","4","4","4","4","0","4","4","4","4","0","4","NA","NA","4","0","0","0","0","0","0","0","4","11/02/20 14:34:04","Default description","yes","simont_HV.osexp","C:\Users\admin\Desktop\채은\!MouseTracking_final","no","sans","no","18","no","black","no","yes","768","210","None","210","370","legacy","4","4","2","C:/Users/admin/Desktop/채은/!MouseTracking_final/subject-16.csv","legacy","1","1","2","Kafkaesque Koffka","3.2.6","0","green","space","NA","None","green","start","space","NA","NA","NA","NA","693","75440","NA","250","693","824","27902","NA","NA","NA","NA","2","legacy","1024","2","48000","-16","experiment","16","even","legacy","red","green","blue","yellow","1","30333","NA","NA","120508","2425","NA","119059","119563","119815","118234","110103","2429","120514","121514","119563","119815","NA","NA","NA","NA","118234","NA","NA","NA","NA","NA","NA","105773","118233","[119564.0, 119574.0, 119584.0, 119594.0, 119604.0, 119614.0, 119624.0, 119634.0, 119644.0, 119654.0, 119664.0, 119674.0, 119684.0, 119694.0, 119704.0, 119714.0, 119724.0, 119734.0, 119744.0, 119754.0, 119764.0, 119774.0, 119784.0, 119794.0, 119804.0, 119814.0]","[119815.0, 119825.0, 119835.0, 119845.0, 119855.0, 119865.0, 119875.0, 119885.0, 119895.0, 119905.0, 119915.0, 119925.0, 119935.0, 119945.0, 119955.0, 119965.0, 119975.0, 119985.0, 119995.0, 120005.0, 120015.0, 120025.0, 120035.0, 120045.0, 120055.0, 120065.0, 120075.0, 120085.0, 120095.0, 120105.0, 120115.0, 120125.0, 120135.0, 120145.0, 120155.0, 120165.0, 120175.0, 120185.0, 120195.0, 120205.0, 120215.0, 120225.0, 120235.0, 120245.0, 120255.0, 120265.0, 120275.0, 120285.0, 120295.0, 120305.0, 120315.0, 120325.0, 120335.0, 120345.0, 120355.0, 120365.0, 120375.0, 120385.0, 120395.0, 120405.0, 120415.0, 120425.0, 120435.0, 120445.0, 120455.0, 120465.0, 120475.0, 120485.0, 120495.0, 120505.0, 120508]","example_experiment","3","2306","3","yes","768","3","[0, 0, 0, 0, 0, 0, 0, 0, 0, 0, 0, 0, 0, 0, 0, 0, 0, 0, 0, 0, 0, 0, 0, 0, 0, 0]","[0, 0, 0, 0, 0, 0, 0, 0, 0, 0, 0, 0, 0, 0, 0, 0, 0, 0, 0, 0, 0, 0, 2, 10, 23, 40, 65, 92, 126, 161, 190, 220, 245, 263, 272, 276, 277, 277, 277, 277, 277, 277, 277, 277, 277, 277, 277, 277, 277, 277, 277, 277, 277, 277, 278, 281, 284, 287, 291, 295, 298, 301, 305, 308, 312, 315, 318, 321, 323, 323, 323]","[0, 0, 0, 0, 0, 0, 0, 0, 0, 0, 0, 0, 0, 0, 0, 0, 0, 0, 0, 0, 0, 0, 0, 0, 0, 0]","[0, 0, 0, 0, 0, 0, 0, 0, 0, 0, 0, 0, 0, 0, 0, 0, 0, 0, 0, 0, 0, 0, -1, -2, -4, -5, -6, -6, -6, -6, -6, -5, -4, -3, -3, -3, -3, -3, -3, -3, -3, -3, -3, -3, -3, -3, -3, -3, -3, -3, -3, -3, -3, -3, -2, -2, -1, -1, -1, -1, -1, -1, -1, -1, -2, -2, -2, -3, -3, -3, -3]"
"100","100","708.25","708.25","black","no","prac","1","legacy","legacy","y.png","w.png","w.png","w.png","2","legacy","0","relative","1","undefined","NA","yellow","NA","undefined","1","undefined","undefined","yellow","4","0","3","0","5","0","NA","5","5","5","5","5","0","5","5","5","5","0","4","NA","NA","5","0","0","0","0","0","0","0","5","11/02/20 14:34:04","Default description","yes","simont_HV.osexp","C:\Users\admin\Desktop\채은\!MouseTracking_final","no","sans","no","18","no","black","no","yes","768","50","None","50","300","legacy","5","5","2","C:/Users/admin/Desktop/채은/!MouseTracking_final/subject-16.csv","legacy","1","1","1","Kafkaesque Koffka","3.2.6","0","yellow","space","NA","None","yellow","start","space","NA","NA","NA","NA","527","75440","NA","250","527","524","27902","NA","NA","NA","NA","2","legacy","1024","2","48000","-16","experiment","16","even","legacy","red","green","blue","yellow","2","30333","NA","NA","123427","2425","NA","122144","122648","122900","121619","110103","2429","123444","124444","122648","122900","NA","NA","NA","NA","121619","NA","NA","NA","NA","NA","NA","105773","121618","[122649.0, 122659.0, 122669.0, 122679.0, 122689.0, 122699.0, 122709.0, 122719.0, 122729.0, 122739.0, 122749.0, 122759.0, 122769.0, 122779.0, 122789.0, 122799.0, 122809.0, 122819.0, 122829.0, 122839.0, 122849.0, 122859.0, 122869.0, 122879.0, 122889.0, 122899.0]","[122900.0, 122910.0, 122920.0, 122930.0, 122940.0, 122950.0, 122960.0, 122970.0, 122980.0, 122990.0, 123000.0, 123010.0, 123020.0, 123030.0, 123040.0, 123050.0, 123060.0, 123070.0, 123080.0, 123090.0, 123100.0, 123110.0, 123120.0, 123130.0, 123140.0, 123150.0, 123160.0, 123170.0, 123180.0, 123190.0, 123200.0, 123210.0, 123220.0, 123230.0, 123240.0, 123250.0, 123260.0, 123270.0, 123280.0, 123290.0, 123300.0, 123310.0, 123320.0, 123330.0, 123340.0, 123350.0, 123360.0, 123370.0, 123380.0, 123390.0, 123400.0, 123410.0, 123420.0, 123427]","example_experiment","4","2833","4","yes","768","1","[0, 0, 0, 0, 0, 0, 0, 0, 0, 0, 0, 0, 0, 0, 0, 0, 0, 0, 0, 0, 0, 0, 0, 0, 0, 0]","[0, 0, 0, 0, 0, 0, 1, 2, 3, 5, 7, 9, 12, 15, 20, 24, 29, 34, 35, 36, 36, 36, 36, 35, 35, 33, 31, 29, 26, 24, 22, 19, 18, 15, 14, 11, 8, 6, 3, 0, -3, -4, -6, -7, -8, -8, -8, -8, -7, -7, -7, -6, -6, -6]","[0, 0, 0, 0, 0, 0, 0, 0, 0, 0, 0, 0, 0, 0, 0, 0, 0, 0, 0, 0, 0, 0, 0, 0, 0, 0]","[0, 0, 0, 0, 0, 0, 0, 2, 5, 9, 15, 21, 30, 40, 55, 71, 88, 106, 121, 136, 153, 166, 180, 193, 205, 216, 227, 235, 242, 248, 252, 255, 259, 262, 265, 269, 272, 276, 280, 283, 287, 292, 298, 303, 308, 312, 315, 318, 319, 320, 320, 320, 320, 320]"
"100","100","734","734","black","no","prac","2","legacy","legacy","w.png","w.png","r.png","w.png","1","legacy","0","relative","1","undefined","NA","red","NA","undefined","1","undefined","undefined","red","1","0","3","0","6","0","NA","6","6","6","6","6","0","6","6","6","6","0","4","NA","NA","6","0","0","0","0","0","0","0","6","11/02/20 14:34:04","Default description","yes","simont_HV.osexp","C:\Users\admin\Desktop\채은\!MouseTracking_final","no","sans","no","18","no","black","no","yes","768","20","None","20","200","legacy","6","6","2","C:/Users/admin/Desktop/채은/!MouseTracking_final/subject-16.csv","legacy","2","1","1","Kafkaesque Koffka","3.2.6","0","red","space","NA","None","red","start","space","NA","NA","NA","NA","837","75440","NA","250","837","380","27902","NA","NA","NA","NA","2","legacy","1024","2","48000","-16","experiment","16","even","legacy","red","green","blue","yellow","1","30333","NA","NA","126540","2425","NA","124947","125451","125703","124566","110103","2429","126554","127554","125451","125703","NA","NA","NA","NA","124565","NA","NA","NA","NA","NA","NA","105773","124564","[125452.0, 125462.0, 125472.0, 125482.0, 125492.0, 125502.0, 125512.0, 125522.0, 125532.0, 125542.0, 125552.0, 125562.0, 125572.0, 125582.0, 125592.0, 125602.0, 125612.0, 125622.0, 125632.0, 125642.0, 125652.0, 125662.0, 125672.0, 125682.0, 125692.0, 125702.0]","[125703.0, 125713.0, 125723.0, 125733.0, 125743.0, 125753.0, 125763.0, 125773.0, 125783.0, 125793.0, 125803.0, 125813.0, 125823.0, 125833.0, 125843.0, 125853.0, 125863.0, 125873.0, 125883.0, 125893.0, 125903.0, 125913.0, 125923.0, 125933.0, 125943.0, 125953.0, 125963.0, 125973.0, 125983.0, 125993.0, 126003.0, 126013.0, 126023.0, 126033.0, 126043.0, 126053.0, 126063.0, 126073.0, 126083.0, 126093.0, 126103.0, 126113.0, 126123.0, 126133.0, 126143.0, 126153.0, 126163.0, 126173.0, 126183.0, 126193.0, 126203.0, 126211, 126221.0, 126231.0, 126241.0, 126251.0, 126261.0, 126271.0, 126281.0, 126291.0, 126301.0, 126311.0, 126321.0, 126331.0, 126341.0, 126351.0, 126361.0, 126371.0, 126381.0, 126391.0, 126401.0, 126411.0, 126421.0, 126431.0, 126441.0, 126451.0, 126461.0, 126471.0, 126481.0, 126491.0, 126501.0, 126511.0, 126521.0, 126531.0, 126540]","example_experiment","5","3670","5","yes","768","2","[0, 0, 0, 0, 0, 0, 0, 0, 0, 0, 0, 0, 0, 0, 0, 0, 0, 0, 0, 0, 0, 0, 0, 0, 0, 0]","[0, 0, 0, 1, 1, 2, 2, 2, 2, 3, 3, 3, 3, 3, 3, 3, 3, 3, 3, 3, 3, -2, -9, -23, -41, -64, -94, -128, -161, -193, -220, -243, -261, -274, -281, -285, -287, -287, -287, -287, -287, -287, -287, -287, -287, -287, -287, -287, -287, -287, -287, -287, -287, -287, -287, -287, -287, -287, -287, -287, -287, -287, -288, -289, -291, -292, -295, -298, -301, -302, -304, -304, -304, -304, -304, -304, -304, -304, -304, -304, -304, -304, -304, -304, -304]","[0, 0, 0, 0, 0, 0, 0, 0, 0, 0, 0, 0, 0, 0, 0, 0, 0, 0, 0, 0, 0, 0, 0, 0, 0, 0]","[0, 0, 0, 0, 0, 0, 0, -1, -1, -1, -1, -1, -1, -1, -1, -1, -1, -1, -1, -1, -1, 0, 1, 3, 4, 4, 4, 2, 0, -2, -3, -3, -4, -4, -4, -4, -4, -4, -4, -4, -4, -4, -4, -4, -4, -4, -4, -4, -4, -4, -4, -4, -4, -4, -4, -4, -4, -4, -4, -4, -4, -4, -4, -4, -4, -4, -4, -4, -3, -3, -3, -3, -3, -3, -3, -3, -3, -3, -3, -3, -3, -3, -3, -3, -3]"
"100","100","738.833333333","738.833333333","black","no","prac","4","legacy","legacy","w.png","w.png","w.png","y.png","2","legacy","0","relative","1","undefined","NA","yellow","NA","undefined","1","undefined","undefined","yellow","4","0","3","0","7","0","NA","7","7","7","7","7","0","7","7","7","7","0","4","NA","NA","7","0","0","0","0","0","0","0","7","11/02/20 14:34:04","Default description","yes","simont_HV.osexp","C:\Users\admin\Desktop\채은\!MouseTracking_final","no","sans","no","18","no","black","no","yes","768","180","None","180","None","legacy","7","7","1","C:/Users/admin/Desktop/채은/!MouseTracking_final/subject-16.csv","legacy","2","2","1","Kafkaesque Koffka","3.2.6","0","yellow","space","NA","None","yellow","start","space","NA","NA","NA","NA","763","75440","NA","250","763","416","27902","NA","NA","NA","NA","2","legacy","1024","2","48000","-16","experiment","16","even","legacy","red","green","blue","yellow","2","30333","NA","NA","129614","2425","NA","128095","128599","128851","127678","110103","2429","129624","130624","128599","128851","NA","NA","NA","NA","127678","NA","NA","NA","NA","NA","NA","105773","127677","[128600.0, 128610.0, 128620.0, 128630.0, 128640.0, 128650.0, 128660.0, 128670.0, 128680.0, 128690.0, 128700.0, 128710.0, 128720.0, 128730.0, 128740.0, 128750.0, 128760.0, 128770.0, 128780.0, 128790.0, 128800.0, 128810.0, 128820.0, 128830.0, 128840.0, 128850.0]","[128851.0, 128861.0, 128871.0, 128881.0, 128891.0, 128901.0, 128911.0, 128921.0, 128931.0, 128941.0, 128951.0, 128961.0, 128971.0, 128981.0, 128991.0, 129001.0, 129011.0, 129021.0, 129031.0, 129041.0, 129051.0, 129061.0, 129071.0, 129081.0, 129091.0, 129101.0, 129111.0, 129121.0, 129131.0, 129141.0, 129151.0, 129161.0, 129171.0, 129181.0, 129191.0, 129201.0, 129211.0, 129221.0, 129231.0, 129241.0, 129251.0, 129261.0, 129271.0, 129281.0, 129291.0, 129301.0, 129311.0, 129321.0, 129331.0, 129341.0, 129351.0, 129361.0, 129371.0, 129381.0, 129391.0, 129401.0, 129411.0, 129421.0, 129431.0, 129441.0, 129451.0, 129461.0, 129471.0, 129481.0, 129491.0, 129501.0, 129511.0, 129521.0, 129531.0, 129541.0, 129551.0, 129561.0, 129571.0, 129581.0, 129591.0, 129601.0, 129611.0, 129614]","example_experiment","6","4433","6","yes","768","2","[0, 0, 0, 0, 0, 0, 0, 0, 0, 0, 0, 0, 0, 0, 0, 0, 0, 0, 0, 0, 0, 0, 0, 0, 0, 0]","[0, 0, 0, 0, 0, 0, 0, 0, 0, 0, 0, 0, 0, 0, 0, 0, 0, 0, 0, 0, -1, -2, -3, -3, -4, -4, -4, -4, -5, -5, -5, -5, -5, -5, -5, -5, -5, -5, -3, -1, 2, 7, 14, 21, 29, 38, 47, 53, 57, 58, 58, 58, 57, 55, 54, 52, 51, 48, 45, 40, 35, 29, 23, 16, 9, 2, -6, -10, -14, -16, -17, -17, -17, -17, -16, -15, -14, -14]","[0, 0, 0, 0, 0, 0, 0, 0, 0, 0, 0, 0, 0, 0, 0, 0, 0, 0, 0, 0, 0, 0, 0, 0, 0, 0]","[0, 0, 0, 0, 0, 0, 0, 0, 0, 0, 0, 0, 0, 0, 0, 0, 0, 0, 0, -1, -4, -9, -14, -22, -28, -35, -41, -48, -52, -54, -54, -54, -53, -48, -36, -24, -8, 7, 24, 41, 56, 74, 91, 107, 122, 140, 157, 173, 190, 205, 219, 234, 248, 259, 267, 274, 279, 283, 286, 289, 291, 293, 295, 297, 298, 300, 301, 302, 303, 305, 306, 309, 310, 313, 314, 316, 317, 317]"
"100","100","720.285714286","720.285714286","black","no","prac","3","legacy","legacy","w.png","r.png","w.png","w.png","1","legacy","0","relative","1","undefined","NA","red","NA","undefined","1","undefined","undefined","red","1","0","3","0","8","0","NA","8","8","8","8","8","0","8","8","8","8","0","4","NA","NA","8","0","0","0","0","0","0","0","8","11/02/20 14:34:04","Default description","yes","simont_HV.osexp","C:\Users\admin\Desktop\채은\!MouseTracking_final","no","sans","no","18","no","black","no","yes","768","200","None","200","20","legacy","8","8","1","C:/Users/admin/Desktop/채은/!MouseTracking_final/subject-16.csv","legacy","1","2","2","Kafkaesque Koffka","3.2.6","0","red","space","NA","None","red","start","space","NA","NA","NA","NA","609","75440","NA","250","609","408","27902","NA","NA","NA","NA","2","legacy","1024","2","48000","-16","experiment","16","even","legacy","red","green","blue","yellow","1","30333","NA","NA","132521","2425","NA","131156","131660","131912","130747","110103","2429","132534","133534","131660","131912","NA","NA","NA","NA","130747","NA","NA","NA","NA","NA","NA","105773","130746","[131661.0, 131671.0, 131681.0, 131691.0, 131701.0, 131711.0, 131721.0, 131731.0, 131741.0, 131751.0, 131761.0, 131771.0, 131781.0, 131791.0, 131801.0, 131811.0, 131821.0, 131831.0, 131841.0, 131851.0, 131861.0, 131871.0, 131881.0, 131891.0, 131901.0, 131911.0]","[131912.0, 131922.0, 131932.0, 131942.0, 131952.0, 131962.0, 131972.0, 131982.0, 131992.0, 132002.0, 132012.0, 132022.0, 132032.0, 132042.0, 132052.0, 132062.0, 132072.0, 132082.0, 132092.0, 132102.0, 132112.0, 132122.0, 132132.0, 132142.0, 132152.0, 132162.0, 132172.0, 132182.0, 132192.0, 132202.0, 132212.0, 132222.0, 132232.0, 132242.0, 132252.0, 132262.0, 132272.0, 132282.0, 132292.0, 132302.0, 132312.0, 132322.0, 132332.0, 132342.0, 132352.0, 132362.0, 132372.0, 132382.0, 132392.0, 132402.0, 132412.0, 132422.0, 132432.0, 132442.0, 132452.0, 132462.0, 132472.0, 132482.0, 132492.0, 132502.0, 132512.0, 132521]","example_experiment","7","5042","7","yes","768","3","[0, 0, 0, 0, 0, 0, 0, 0, 0, 0, 0, 0, 0, 0, 0, 0, 0, 0, 0, 0, 0, 0, 0, 0, 0, 0]","[0, 0, 0, 0, 0, 0, 0, 0, 0, 0, 0, 0, 0, 0, 0, 0, 0, 0, 0, 0, 0, -3, -10, -20, -34, -48, -70, -95, -119, -143, -166, -188, -203, -216, -226, -233, -238, -241, -243, -246, -249, -253, -257, -261, -266, -269, -273, -277, -280, -283, -286, -291, -297, -303, -309, -314, -318, -321, -323, -323, -323, -323]","[0, 0, 0, 0, 0, 0, 0, 0, 0, 0, 0, 0, 0, 0, 0, 0, 0, 0, 0, 0, 0, 0, 0, 0, 0, 0]","[0, 0, 0, 0, 0, 0, 0, 0, 0, 0, 0, 0, 0, 0, 0, 0, 0, 0, 0, 0, 0, 1, 2, 3, 3, 3, 3, 3, 3, 3, 3, 3, 3, 3, 3, 3, 3, 3, 3, 4, 4, 4, 5, 5, 5, 5, 5, 5, 5, 5, 5, 5, 5, 5, 5, 5, 5, 5, 5, 5, 5, 5]"
"100","100","692.125","692.125","black","no","prac","1","legacy","legacy","y.png","w.png","w.png","w.png","2","legacy","0","relative","1","undefined","NA","yellow","NA","undefined","1","undefined","undefined","yellow","4","0","3","0","9","0","NA","9","9","9","9","9","0","9","9","9","9","0","4","NA","NA","9","0","0","0","0","0","0","0","9","11/02/20 14:34:04","Default description","yes","simont_HV.osexp","C:\Users\admin\Desktop\채은\!MouseTracking_final","no","sans","no","18","no","black","no","yes","768","20","None","20","None","legacy","9","9","2","C:/Users/admin/Desktop/채은/!MouseTracking_final/subject-16.csv","legacy","1","1","2","Kafkaesque Koffka","3.2.6","0","yellow","space","NA","None","yellow","start","space","NA","NA","NA","NA","495","75440","NA","250","495","440","27902","NA","NA","NA","NA","2","legacy","1024","2","48000","-16","experiment","16","even","legacy","red","green","blue","yellow","2","30333","NA","NA","135343","2425","NA","134092","134596","134848","133650","110103","2429","135364","136364","134596","134848","NA","NA","NA","NA","133650","NA","NA","NA","NA","NA","NA","105773","133649","[134597.0, 134607.0, 134617.0, 134627.0, 134637.0, 134647.0, 134657.0, 134667.0, 134677.0, 134687.0, 134697.0, 134707.0, 134717.0, 134727.0, 134737.0, 134747.0, 134757.0, 134767.0, 134777.0, 134787.0, 134797.0, 134807.0, 134817.0, 134827.0, 134837.0, 134847.0]","[134848.0, 134858.0, 134868.0, 134878.0, 134888.0, 134898.0, 134908.0, 134918.0, 134928.0, 134938.0, 134948.0, 134958.0, 134968.0, 134978.0, 134988.0, 134998.0, 135008.0, 135018.0, 135028.0, 135038.0, 135048.0, 135058.0, 135068.0, 135078.0, 135088.0, 135098.0, 135108.0, 135118.0, 135128.0, 135138.0, 135148.0, 135158.0, 135168.0, 135178.0, 135188.0, 135198.0, 135208.0, 135218.0, 135228.0, 135238.0, 135248.0, 135258.0, 135268.0, 135278.0, 135288.0, 135298.0, 135308.0, 135318.0, 135328.0, 135338.0, 135343]","example_experiment","8","5537","8","yes","768","3","[0, 0, 0, 0, 0, 0, 0, 0, 0, 0, 0, 0, 0, 0, 0, 0, 0, 0, 0, 0, 0, 0, 0, 0, 0, 0]","[0, 0, 0, 1, 2, 3, 4, 5, 6, 7, 9, 14, 18, 24, 31, 38, 44, 50, 54, 58, 61, 61, 61, 61, 60, 58, 57, 56, 55, 54, 53, 51, 49, 46, 42, 39, 36, 33, 30, 27, 25, 23, 20, 17, 14, 11, 8, 6, 5, 4, 4]","[0, 0, 0, 0, 0, 0, 0, 0, 0, 0, 0, 0, 0, 0, 0, 0, 0, 0, 0, 0, 0, 0, 0, 0, 0, 0]","[0, 0, 0, 0, 0, 2, 4, 8, 14, 24, 35, 49, 62, 77, 96, 115, 136, 159, 178, 196, 214, 226, 238, 249, 258, 265, 271, 275, 278, 281, 283, 286, 289, 291, 293, 296, 297, 299, 301, 303, 304, 305, 306, 307, 309, 310, 311, 313, 314, 314, 314]"
"100","100","657.222222222","657.222222222","black","no","prac","1","legacy","legacy","w.png","w.png","g.png","w.png","2","legacy","0","relative","1","undefined","NA","green","NA","undefined","1","undefined","undefined","green","2","0","3","0","10","0","NA","10","10","10","10","10","0","10","10","10","10","0","4","NA","NA","10","0","0","0","0","0","0","0","10","11/02/20 14:34:04","Default description","yes","simont_HV.osexp","C:\Users\admin\Desktop\채은\!MouseTracking_final","no","sans","no","18","no","black","no","yes","768","0","None","0","0","legacy","10","10","2","C:/Users/admin/Desktop/채은/!MouseTracking_final/subject-16.csv","legacy","1","1","1","Kafkaesque Koffka","3.2.6","0","green","space","NA","None","green","start","space","NA","NA","NA","NA","378","75440","NA","250","378","373","27902","NA","NA","NA","NA","2","legacy","1024","2","48000","-16","experiment","16","even","legacy","red","green","blue","yellow","1","30333","NA","NA","137992","2425","NA","136858","137362","137614","136483","110103","2429","137994","138994","137362","137614","NA","NA","NA","NA","136483","NA","NA","NA","NA","NA","NA","105773","136482","[137363.0, 137373.0, 137383.0, 137393.0, 137403.0, 137413.0, 137423.0, 137433.0, 137443.0, 137453.0, 137463.0, 137473.0, 137483.0, 137493.0, 137503.0, 137513.0, 137523.0, 137533.0, 137543.0, 137553.0, 137563.0, 137573.0, 137583.0, 137593.0, 137603.0, 137613.0]","[137614.0, 137624.0, 137634.0, 137644.0, 137654.0, 137664.0, 137674.0, 137684.0, 137694.0, 137704.0, 137714.0, 137724.0, 137734.0, 137744.0, 137754.0, 137764.0, 137774.0, 137784.0, 137794.0, 137804.0, 137814.0, 137824.0, 137834.0, 137844.0, 137854.0, 137864.0, 137874.0, 137884.0, 137894.0, 137904.0, 137914.0, 137924.0, 137934.0, 137944.0, 137954.0, 137964.0, 137974.0, 137984.0, 137992]","example_experiment","9","5915","9","yes","768","1","[0, 0, 0, 0, 0, 0, 0, 0, 0, 0, 0, 0, 0, 0, 0, 0, 0, 0, 0, 0, 0, 0, 0, 0, 0, 0]","[0, 4, 10, 18, 33, 51, 75, 100, 131, 162, 188, 213, 231, 245, 256, 264, 268, 271, 273, 275, 277, 279, 281, 284, 287, 292, 297, 302, 306, 310, 313, 314, 314, 314, 314, 314, 314, 314, 314]","[0, 0, 0, 0, 0, 0, 0, 0, 0, 0, 0, 0, 0, 0, 0, 0, 0, 0, 0, 0, 0, 0, 0, 0, 0, 0]","[0, 0, -1, -3, -6, -8, -10, -11, -12, -13, -14, -14, -14, -14, -14, -14, -14, -14, -14, -15, -15, -15, -15, -15, -15, -15, -15, -14, -13, -12, -12, -11, -11, -11, -11, -11, -11, -11, -11]"
"100","100","644.6","644.6","black","no","prac","1","legacy","legacy","w.png","w.png","w.png","b.png","1","legacy","0","relative","1","undefined","NA","blue","NA","undefined","1","undefined","undefined","blue","3","0","3","0","11","0","NA","11","11","11","11","11","0","11","11","11","11","0","4","NA","NA","11","0","0","0","0","0","0","0","11","11/02/20 14:34:04","Default description","yes","simont_HV.osexp","C:\Users\admin\Desktop\채은\!MouseTracking_final","no","sans","no","18","no","black","no","yes","768","20","None","20","11","legacy","11","11","1","C:/Users/admin/Desktop/채은/!MouseTracking_final/subject-16.csv","legacy","1","1","1","Kafkaesque Koffka","3.2.6","0","blue","space","NA","None","blue","start","space","NA","NA","NA","NA","531","75440","NA","250","531","312","27902","NA","NA","NA","NA","2","legacy","1024","2","48000","-16","experiment","16","even","legacy","red","green","blue","yellow","2","30333","NA","NA","140696","2425","NA","139411","139914","140165","139098","110103","2429","140704","141704","139914","140165","NA","NA","NA","NA","139098","NA","NA","NA","NA","NA","NA","105773","139097","[139914.0, 139924.0, 139934.0, 139944.0, 139954.0, 139964.0, 139974.0, 139984.0, 139994.0, 140004.0, 140014.0, 140024.0, 140034.0, 140044.0, 140054.0, 140064.0, 140074.0, 140084.0, 140094.0, 140104.0, 140114.0, 140124.0, 140134.0, 140144.0, 140154.0, 140164.0]","[140165.0, 140175.0, 140185.0, 140195.0, 140205.0, 140215.0, 140225.0, 140235.0, 140245.0, 140255.0, 140265.0, 140275.0, 140285.0, 140295.0, 140305.0, 140315.0, 140325.0, 140335.0, 140345.0, 140355.0, 140365.0, 140375.0, 140385.0, 140395.0, 140405.0, 140415.0, 140425.0, 140435.0, 140445.0, 140455.0, 140465.0, 140475.0, 140485.0, 140495.0, 140505.0, 140515.0, 140525.0, 140535.0, 140545.0, 140555.0, 140565.0, 140575.0, 140585.0, 140595.0, 140605.0, 140615.0, 140625.0, 140635.0, 140645.0, 140655.0, 140665.0, 140675.0, 140685.0, 140695.0, 140696]","example_experiment","10","6446","10","yes","768","1","[0, 0, 0, 0, 0, 0, 0, 0, 0, 0, 0, 0, 0, 0, 0, 0, 0, 0, 0, 0, 0, 0, 0, 0, 0, 0]","[0, 0, 0, 0, 0, 0, -2, -3, -7, -10, -13, -18, -23, -25, -26, -26, -23, -18, -11, -5, 0, 3, 4, 5, 5, 5, 5, 5, 4, 3, 3, 2, 1, 1, 1, 1, 1, 2, 3, 3, 4, 4, 4, 4, 4, 4, 4, 4, 4, 4, 4, 4, 4, 4, 4]","[0, 0, 0, 0, 0, 0, 0, 0, 0, 0, 0, 0, 0, 0, 0, 0, 0, 0, 0, 0, 0, 0, 0, 0, 0, 0]","[0, 0, 0, -1, -5, -12, -19, -27, -38, -49, -62, -79, -98, -114, -129, -142, -153, -164, -176, -187, -196, -206, -214, -222, -230, -237, -245, -251, -256, -261, -265, -269, -272, -276, -279, -283, -287, -291, -294, -298, -301, -304, -306, -307, -308, -310, -311, -311, -312, -314, -314, -315, -315, -315, -315]"
"100","100","630.909090909","630.909090909","black","no","prac","1","legacy","legacy","w.png","r.png","w.png","w.png","1","legacy","0","relative","1","undefined","NA","red","NA","undefined","1","undefined","undefined","red","1","0","3","0","12","0","NA","12","12","12","12","12","0","12","12","12","12","0","4","NA","NA","12","0","0","0","0","0","0","0","12","11/02/20 14:34:04","Default description","yes","simont_HV.osexp","C:\Users\admin\Desktop\채은\!MouseTracking_final","no","sans","no","18","no","black","no","yes","768","50","30","50","50","legacy","12","12","1","C:/Users/admin/Desktop/채은/!MouseTracking_final/subject-16.csv","legacy","1","1","1","Kafkaesque Koffka","3.2.6","0","red","space","NA","None","red","start","space","NA","NA","NA","NA","494","75440","NA","250","494","331","27902","NA","NA","NA","NA","2","legacy","1024","2","48000","-16","experiment","16","even","legacy","red","green","blue","yellow","1","30333","NA","NA","143402","2425","NA","142152","142656","142908","141820","110103","2429","143414","144414","142656","142908","NA","NA","NA","NA","141820","NA","NA","NA","NA","NA","NA","105773","141819","[142657.0, 142667.0, 142677.0, 142687.0, 142697.0, 142707.0, 142717.0, 142727.0, 142737.0, 142747.0, 142757.0, 142767.0, 142777.0, 142787.0, 142797.0, 142807.0, 142817.0, 142827.0, 142837.0, 142847.0, 142857.0, 142867.0, 142877.0, 142887.0, 142897.0, 142907.0]","[142908.0, 142918.0, 142928.0, 142938.0, 142948.0, 142958.0, 142968.0, 142978.0, 142988.0, 142998.0, 143008.0, 143018.0, 143028.0, 143038.0, 143048.0, 143058.0, 143068.0, 143078.0, 143088.0, 143098.0, 143108.0, 143118.0, 143128.0, 143138.0, 143148.0, 143158.0, 143168.0, 143178.0, 143188.0, 143198.0, 143208.0, 143218.0, 143228.0, 143238.0, 143248.0, 143258.0, 143268.0, 143278.0, 143288.0, 143298.0, 143308.0, 143318.0, 143328.0, 143338.0, 143348.0, 143358.0, 143368.0, 143378.0, 143388.0, 143398.0, 143402]","example_experiment","11","6940","11","yes","768","1","[0, 0, 0, 0, 0, 0, 0, 0, 0, 0, 0, 0, 0, 0, 0, 0, 0, 0, 0, 0, 0, 0, 0, 0, 0, 0]","[0, 0, 0, 0, 0, 0, -1, -3, -6, -11, -20, -32, -49, -72, -97, -122, -146, -168, -186, -201, -211, -219, -224, -228, -233, -237, -241, -244, -248, -251, -255, -258, -262, -266, -272, -278, -285, -291, -298, -303, -308, -313, -317, -320, -321, -324, -325, -326, -326, -326, -326]","[0, 0, 0, 0, 1, 1, 1, 1, 1, 1, 1, 1, 1, 1, 1, 1, 1, 1, 1, 1, 1, 1, 1, 1, 1, 1]","[1, 1, 1, 1, 1, 1, 1, 1, 2, 2, 3, 3, 3, 3, 2, 2, 1, 0, -1, -1, -2, -2, -3, -4, -4, -4, -4, -4, -4, -4, -4, -4, -4, -4, -4, -4, -4, -4, -4, -4, -4, -4, -4, -4, -4, -4, -4, -4, -4, -4, -4]"
"100","100","659.75","659.75","black","no","prac","2","legacy","legacy","w.png","w.png","w.png","y.png","2","legacy","0","relative","1","undefined","NA","yellow","NA","undefined","1","undefined","undefined","yellow","4","0","3","0","13","0","NA","13","13","13","13","13","0","13","13","13","13","0","4","NA","NA","13","0","0","0","0","0","0","0","13","11/02/20 14:34:04","Default description","yes","simont_HV.osexp","C:\Users\admin\Desktop\채은\!MouseTracking_final","no","sans","no","18","no","black","no","yes","768","150","None","150","110","legacy","13","13","1","C:/Users/admin/Desktop/채은/!MouseTracking_final/subject-16.csv","legacy","2","1","1","Kafkaesque Koffka","3.2.6","0","yellow","space","NA","None","yellow","start","space","NA","NA","NA","NA","977","75440","NA","250","977","387","27902","NA","NA","NA","NA","2","legacy","1024","2","48000","-16","experiment","16","even","legacy","red","green","blue","yellow","2","30333","NA","NA","146659","2425","NA","144926","145430","145682","144538","110103","2429","146674","147674","145430","145682","NA","NA","NA","NA","144538","NA","NA","NA","NA","NA","NA","105773","144536","[145431.0, 145441.0, 145451.0, 145461.0, 145471.0, 145481.0, 145491.0, 145501.0, 145511.0, 145521.0, 145531.0, 145541.0, 145551.0, 145561.0, 145571.0, 145581.0, 145591.0, 145601.0, 145611.0, 145621.0, 145631.0, 145641.0, 145651.0, 145661.0, 145671.0, 145681.0]","[145682.0, 145692.0, 145702.0, 145712.0, 145722.0, 145732.0, 145742.0, 145752.0, 145762.0, 145772.0, 145782.0, 145792.0, 145802.0, 145812.0, 145822.0, 145832.0, 145842.0, 145852.0, 145862.0, 145872.0, 145882.0, 145892.0, 145902.0, 145912.0, 145922.0, 145932.0, 145942.0, 145952.0, 145962.0, 145972.0, 145982.0, 145992.0, 146002.0, 146012.0, 146022.0, 146032.0, 146042.0, 146052.0, 146062.0, 146072.0, 146082.0, 146092.0, 146102.0, 146112.0, 146122.0, 146132.0, 146142.0, 146152.0, 146162.0, 146172.0, 146182.0, 146192.0, 146202.0, 146212.0, 146222.0, 146232.0, 146242.0, 146252.0, 146262.0, 146272.0, 146282.0, 146292.0, 146302.0, 146312.0, 146322.0, 146332.0, 146342.0, 146352.0, 146362.0, 146372.0, 146382.0, 146392.0, 146402.0, 146412.0, 146422.0, 146432.0, 146442.0, 146452.0, 146462.0, 146472.0, 146482.0, 146492.0, 146502.0, 146512.0, 146522.0, 146532.0, 146542.0, 146552.0, 146562.0, 146572.0, 146582.0, 146592.0, 146602.0, 146612.0, 146622.0, 146632.0, 146642.0, 146652.0, 146659]","example_experiment","12","7917","12","yes","768","2","[0, 0, 0, 0, 0, 0, 0, 0, 0, 0, 0, 0, 0, 0, 0, 0, 0, 0, 0, 0, 0, 0, 0, 0, 0, 0]","[0, 0, 0, 0, 0, 0, 0, 0, 0, 0, 0, 0, 0, 0, 0, 0, 1, 1, 1, 1, 1, 1, 1, 1, 0, -3, -8, -14, -23, -36, -50, -68, -88, -111, -132, -154, -172, -188, -200, -209, -214, -218, -219, -219, -219, -219, -219, -219, -219, -214, -201, -182, -157, -129, -95, -66, -35, -10, 16, 33, 45, 53, 57, 58, 58, 58, 58, 56, 52, 49, 44, 41, 38, 36, 34, 32, 30, 29, 26, 24, 22, 20, 18, 16, 16, 14, 14, 13, 13, 13, 12, 12, 12, 11, 11, 11, 11, 11, 11]","[0, 0, 0, 0, 0, 0, 0, 0, 0, 0, 0, 0, 0, 0, 0, 0, 0, 0, 0, 0, 0, 0, 0, 0, 0, 0]","[0, 0, 0, 0, 0, 0, 0, 0, 0, 0, 0, 0, 0, 0, 0, 0, 1, 2, 2, 2, 2, 2, 2, 2, 3, 4, 4, 4, 4, 4, 5, 5, 5, 6, 6, 7, 8, 9, 10, 11, 11, 12, 12, 13, 13, 13, 13, 13, 13, 12, 11, 10, 10, 12, 17, 23, 33, 43, 56, 68, 80, 92, 102, 114, 125, 137, 148, 160, 174, 185, 195, 203, 211, 219, 226, 236, 244, 252, 259, 266, 272, 278, 284, 289, 294, 299, 302, 305, 308, 310, 311, 313, 314, 315, 316, 317, 318, 318, 318]"
"100","100","649.076923077","649.076923077","black","no","prac","3","legacy","legacy","w.png","r.png","w.png","w.png","1","legacy","0","relative","1","undefined","NA","red","NA","undefined","1","undefined","undefined","red","1","0","3","0","14","0","NA","14","14","14","14","14","0","14","14","14","14","0","4","NA","NA","14","0","0","0","0","0","0","0","14","11/02/20 14:34:04","Default description","yes","simont_HV.osexp","C:\Users\admin\Desktop\채은\!MouseTracking_final","no","sans","no","18","no","black","no","yes","768","80","None","80","None","legacy","14","14","1","C:/Users/admin/Desktop/채은/!MouseTracking_final/subject-16.csv","legacy","1","2","1","Kafkaesque Koffka","3.2.6","0","red","space","NA","None","red","start","space","NA","NA","NA","NA","521","75440","NA","250","521","346","27902","NA","NA","NA","NA","2","legacy","1024","2","48000","-16","experiment","16","even","legacy","red","green","blue","yellow","1","30333","NA","NA","149423","2425","NA","148146","148650","148902","147799","110103","2429","149444","150444","148650","148902","NA","NA","NA","NA","147799","NA","NA","NA","NA","NA","NA","105773","147798","[148651.0, 148661.0, 148671.0, 148681.0, 148691.0, 148701.0, 148711.0, 148721.0, 148731.0, 148741.0, 148751.0, 148761.0, 148771.0, 148781.0, 148791.0, 148801.0, 148811.0, 148821.0, 148831.0, 148841.0, 148851.0, 148861.0, 148871.0, 148881.0, 148891.0, 148901.0]","[148902.0, 148912.0, 148922.0, 148932.0, 148942.0, 148952.0, 148962.0, 148972.0, 148982.0, 148992.0, 149002.0, 149012.0, 149022.0, 149032.0, 149042.0, 149052.0, 149062.0, 149072.0, 149082.0, 149092.0, 149102.0, 149112.0, 149122.0, 149132.0, 149142.0, 149152.0, 149162.0, 149172.0, 149182.0, 149192.0, 149202.0, 149212.0, 149222.0, 149232.0, 149242.0, 149252.0, 149262.0, 149272.0, 149282.0, 149292.0, 149302.0, 149312.0, 149322.0, 149332.0, 149342.0, 149352.0, 149362.0, 149372.0, 149382.0, 149392.0, 149402.0, 149412.0, 149422.0, 149423]","example_experiment","13","8438","13","yes","768","1","[0, 0, 0, 0, 0, 0, 0, 0, 0, 0, 0, 0, 0, 0, 0, 0, 0, 0, 0, 0, 0, 0, 0, 0, 0, 0]","[0, 0, 0, 0, 0, 0, 0, 0, 0, -5, -11, -20, -30, -44, -61, -80, -103, -128, -157, -186, -209, -230, -249, -262, -270, -276, -279, -280, -281, -282, -283, -285, -285, -287, -287, -287, -287, -287, -287, -287, -288, -288, -290, -292, -295, -299, -303, -309, -313, -316, -319, -319, -319, -319]","[0, 0, 0, 0, 0, 0, 0, 0, 0, 0, 0, 0, 0, 0, 0, 0, 0, 0, 0, 0, 0, 0, 0, 0, 0, 0]","[0, 0, 0, 0, 0, 0, 0, 0, 0, 0, 2, 6, 9, 13, 16, 17, 19, 19, 20, 20, 20, 20, 20, 20, 20, 20, 20, 20, 20, 20, 20, 20, 20, 20, 20, 20, 20, 20, 20, 20, 19, 18, 16, 15, 13, 11, 8, 6, 3, 2, 1, 1, 1, 1]"
"100","100","660.571428571","660.571428571","black","no","prac","2","legacy","legacy","b.png","w.png","w.png","w.png","1","legacy","0","relative","1","undefined","NA","blue","NA","undefined","1","undefined","undefined","blue","3","0","3","0","15","0","NA","15","15","15","15","15","0","15","15","15","15","0","4","NA","NA","15","0","0","0","0","0","0","0","15","11/02/20 14:34:04","Default description","yes","simont_HV.osexp","C:\Users\admin\Desktop\채은\!MouseTracking_final","no","sans","no","18","no","black","no","yes","768","10","0","10","0","legacy","15","15","2","C:/Users/admin/Desktop/채은/!MouseTracking_final/subject-16.csv","legacy","2","1","2","Kafkaesque Koffka","3.2.6","0","blue","space","NA","None","blue","start","space","NA","NA","NA","NA","810","75440","NA","250","810","290","27902","NA","NA","NA","NA","2","legacy","1024","2","48000","-16","experiment","16","even","legacy","red","green","blue","yellow","2","30333","NA","NA","152417","2425","NA","150851","151355","151607","150560","110103","2429","152434","153434","151355","151607","NA","NA","NA","NA","150560","NA","NA","NA","NA","NA","NA","105773","150559","[151356.0, 151366.0, 151376.0, 151386.0, 151396.0, 151406.0, 151416.0, 151426.0, 151436.0, 151446.0, 151456.0, 151466.0, 151476.0, 151486.0, 151496.0, 151506.0, 151516.0, 151526.0, 151536.0, 151546.0, 151556.0, 151566.0, 151576.0, 151586.0, 151596.0, 151606.0]","[151607.0, 151617.0, 151627.0, 151637.0, 151647.0, 151657.0, 151667.0, 151677.0, 151687.0, 151697.0, 151707.0, 151717.0, 151727.0, 151737.0, 151747.0, 151757.0, 151767.0, 151777.0, 151787.0, 151797.0, 151807.0, 151817.0, 151827.0, 151837.0, 151847.0, 151857.0, 151867.0, 151877.0, 151887.0, 151897.0, 151907.0, 151917.0, 151927.0, 151937.0, 151947.0, 151957.0, 151967.0, 151977.0, 151987.0, 151997.0, 152007.0, 152017.0, 152027.0, 152037.0, 152047.0, 152057.0, 152067.0, 152077.0, 152087.0, 152097.0, 152107.0, 152117.0, 152127.0, 152137.0, 152147.0, 152157.0, 152167.0, 152177.0, 152187.0, 152197.0, 152207.0, 152217.0, 152227.0, 152237.0, 152247.0, 152257.0, 152267.0, 152277.0, 152287.0, 152297.0, 152307.0, 152317.0, 152327.0, 152337.0, 152347.0, 152357.0, 152367.0, 152377.0, 152387.0, 152397.0, 152407.0, 152417.0, 152417]","example_experiment","14","9248","14","yes","768","4","[0, 2, 5, 8, 11, 14, 17, 21, 24, 27, 30, 32, 33, 34, 34, 34, 34, 34, 34, 34, 34, 34, 34, 34, 34, 34]","[34, 34, 34, 34, 34, 33, 32, 31, 29, 28, 28, 28, 28, 28, 28, 28, 28, 29, 29, 29, 29, 30, 30, 30, 30, 30, 30, 32, 33, 35, 36, 37, 38, 38, 36, 31, 24, 15, 7, 2, -4, -9, -13, -15, -16, -16, -16, -16, -16, -16, -16, -16, -16, -16, -16, -16, -16, -16, -15, -13, -11, -9, -7, -6, -5, -5, -4, -4, -4, -4, -3, -3, -3, -3, -3, -3, -3, -3, -2, -2, -2, -2, -2]","[0, 0, 0, 0, 0, 0, 0, 0, 0, -1, -2, -2, -2, -2, -2, -2, -2, -2, -2, -2, -2, -2, -2, -2, -2, -2]","[-2, -2, -1, 5, 12, 24, 36, 49, 66, 79, 92, 101, 108, 116, 124, 132, 140, 146, 151, 155, 158, 161, 163, 164, 164, 164, 164, 163, 157, 144, 128, 102, 66, 28, -14, -56, -91, -124, -155, -174, -190, -204, -212, -218, -221, -223, -223, -223, -223, -223, -223, -223, -223, -223, -223, -225, -228, -232, -237, -243, -249, -254, -260, -265, -269, -273, -277, -280, -283, -286, -288, -290, -291, -292, -293, -294, -294, -295, -295, -295, -295, -296, -296]"
"100","100","659.4","659.4","black","no","prac","4","legacy","legacy","w.png","w.png","r.png","w.png","1","legacy","0","relative","1","undefined","NA","red","NA","undefined","1","undefined","undefined","red","1","0","3","0","16","0","NA","16","16","16","16","16","0","16","16","16","16","0","4","NA","NA","16","0","0","0","0","0","0","0","16","11/02/20 14:34:04","Default description","yes","simont_HV.osexp","C:\Users\admin\Desktop\채은\!MouseTracking_final","no","sans","no","18","no","black","no","yes","768","260","None","260","10","legacy","16","16","2","C:/Users/admin/Desktop/채은/!MouseTracking_final/subject-16.csv","legacy","2","2","1","Kafkaesque Koffka","3.2.6","0","red","space","NA","None","red","start","space","NA","NA","NA","NA","643","75440","NA","250","643","322","27902","NA","NA","NA","NA","2","legacy","1024","2","48000","-16","experiment","16","even","legacy","red","green","blue","yellow","1","30333","NA","NA","155288","2425","NA","153889","154393","154645","153566","110103","2429","155294","156294","154393","154645","NA","NA","NA","NA","153566","NA","NA","NA","NA","NA","NA","105773","153565","[154394.0, 154404.0, 154414.0, 154424.0, 154434.0, 154444.0, 154454.0, 154464.0, 154474.0, 154484.0, 154494.0, 154504.0, 154514.0, 154524.0, 154534.0, 154544.0, 154554.0, 154564.0, 154574.0, 154584.0, 154594.0, 154604.0, 154614.0, 154624.0, 154634.0, 154644.0]","[154645.0, 154655.0, 154665.0, 154675.0, 154685.0, 154695.0, 154705.0, 154715.0, 154725.0, 154735.0, 154745.0, 154755.0, 154765.0, 154775.0, 154785.0, 154795.0, 154805.0, 154815.0, 154825.0, 154835.0, 154845.0, 154855.0, 154865.0, 154875.0, 154885.0, 154895.0, 154905.0, 154915.0, 154925.0, 154935.0, 154945.0, 154955.0, 154965.0, 154975.0, 154985.0, 154995.0, 155005.0, 155015.0, 155025.0, 155035.0, 155045.0, 155055.0, 155065.0, 155075.0, 155085.0, 155095.0, 155105.0, 155115.0, 155125.0, 155135.0, 155145.0, 155155.0, 155165.0, 155175.0, 155185.0, 155195.0, 155205.0, 155215.0, 155225.0, 155235.0, 155245.0, 155255.0, 155265.0, 155275.0, 155285.0, 155288]","example_experiment","15","9891","15","yes","768","2","[0, 0, 0, 0, 0, 0, 0, 0, 0, 0, 0, 0, 0, 0, 0, 0, 0, 0, 0, 0, 0, 0, 0, 0, 0, 0]","[0, 0, 0, 0, 0, 0, 0, 0, 0, 0, 0, 0, 0, 0, 0, 0, 0, 0, 0, 0, 0, 0, 0, 0, 0, 0, 0, -2, -8, -18, -37, -60, -92, -125, -165, -200, -226, -248, -268, -280, -288, -292, -293, -293, -293, -292, -289, -288, -286, -285, -284, -283, -282, -282, -282, -282, -282, -284, -286, -290, -293, -297, -299, -302, -304, -304]","[0, 0, 0, 0, 0, 0, 0, 0, 0, 0, 0, 0, 0, 0, 0, 0, 0, 0, 0, 0, 0, 0, 0, 0, 0, 0]","[0, 0, 0, 0, 0, 0, 0, 0, 0, 0, 0, 0, 0, 0, 0, 0, 0, 0, 0, 0, 0, 0, 0, 0, 0, 0, 0, 0, 1, 3, 4, 5, 7, 10, 16, 21, 24, 26, 26, 26, 26, 26, 26, 26, 26, 25, 24, 23, 22, 21, 20, 19, 19, 18, 18, 17, 16, 14, 13, 11, 8, 7, 5, 4, 3, 3]"
"100","100","666.125","666.125","black","no","prac","4","legacy","legacy","b.png","w.png","w.png","w.png","1","legacy","0","relative","1","undefined","NA","blue","NA","undefined","1","undefined","undefined","blue","3","0","3","0","17","0","NA","17","17","17","17","17","0","17","17","17","17","0","4","NA","NA","17","0","0","0","0","0","0","0","17","11/02/20 14:34:04","Default description","yes","simont_HV.osexp","C:\Users\admin\Desktop\채은\!MouseTracking_final","no","sans","no","18","no","black","no","yes","768","260","None","260","None","legacy","17","17","2","C:/Users/admin/Desktop/채은/!MouseTracking_final/subject-16.csv","legacy","2","2","2","Kafkaesque Koffka","3.2.6","0","blue","space","NA","None","blue","start","space","NA","NA","NA","NA","767","75440","NA","250","767","370","27902","NA","NA","NA","NA","2","legacy","1024","2","48000","-16","experiment","16","even","legacy","red","green","blue","yellow","2","30333","NA","NA","158297","2425","NA","156774","157278","157530","156403","110103","2429","158303","159303","157278","157530","NA","NA","NA","NA","156403","NA","NA","NA","NA","NA","NA","105773","156402","[157279.0, 157289.0, 157299.0, 157309.0, 157319.0, 157329.0, 157339.0, 157349.0, 157359.0, 157369.0, 157379.0, 157389.0, 157399.0, 157409.0, 157419.0, 157429.0, 157439.0, 157449.0, 157459.0, 157469.0, 157479.0, 157489.0, 157499.0, 157509.0, 157519.0, 157529.0]","[157530.0, 157540.0, 157550.0, 157560.0, 157570.0, 157580.0, 157590.0, 157600.0, 157610.0, 157620.0, 157630.0, 157640.0, 157650.0, 157660.0, 157670.0, 157680.0, 157690.0, 157700.0, 157710.0, 157720.0, 157730.0, 157740.0, 157750.0, 157760.0, 157770.0, 157780.0, 157790.0, 157800.0, 157810.0, 157820.0, 157830.0, 157840.0, 157850.0, 157860.0, 157870.0, 157880.0, 157890.0, 157900.0, 157910.0, 157920.0, 157930.0, 157940.0, 157950.0, 157960.0, 157970.0, 157980.0, 157990.0, 158000.0, 158010.0, 158020.0, 158030.0, 158040.0, 158050.0, 158060.0, 158070.0, 158080.0, 158090.0, 158100.0, 158110.0, 158120.0, 158130.0, 158140.0, 158150.0, 158160.0, 158170.0, 158180.0, 158190.0, 158200.0, 158210.0, 158220.0, 158230.0, 158240.0, 158250.0, 158260.0, 158270.0, 158280.0, 158290.0, 158297]","example_experiment","16","10658","16","yes","768","4","[0, 0, 0, 0, 0, 0, 0, 0, 0, 0, 0, 0, 0, 0, 0, 0, 0, 0, 0, 0, 0, 0, 0, 0, 0, 0]","[0, 0, 0, 0, 0, 0, 0, 0, 0, 0, 0, 0, 0, 0, 0, 0, 0, 0, 0, 0, 0, 0, 0, 0, 0, 0, 0, 0, 0, 0, 0, 0, 2, 5, 8, 11, 14, 17, 21, 21, 21, 19, 13, 7, 3, -2, -6, -10, -13, -15, -16, -17, -17, -17, -17, -17, -17, -17, -17, -17, -17, -17, -17, -17, -17, -19, -19, -20, -20, -20, -20, -20, -19, -18, -17, -17, -16, -15]","[0, 0, 0, 0, 0, 0, 0, 0, 0, 0, 0, 0, 0, 0, 0, 0, 0, 0, 0, 0, 0, 0, 0, 0, 0, 0]","[0, 0, 0, 0, 0, 0, 0, 0, 0, 0, 0, 0, 0, 0, 0, 0, 0, 0, 0, 0, 0, 0, 0, 0, 0, 0, 0, -6, -14, -23, -32, -44, -55, -71, -88, -110, -135, -166, -206, -243, -284, -315, -336, -350, -358, -364, -370, -374, -377, -380, -381, -381, -381, -381, -381, -381, -381, -381, -381, -381, -381, -381, -381, -381, -381, -375, -370, -364, -357, -351, -348, -345, -343, -341, -340, -339, -337, -336]"
"100","100","656.294117647","656.294117647","black","no","prac","4","legacy","legacy","w.png","g.png","w.png","w.png","2","legacy","0","relative","1","undefined","NA","green","NA","undefined","1","undefined","undefined","green","2","0","3","0","18","0","NA","18","18","18","18","18","0","18","18","18","18","0","4","NA","NA","18","0","0","0","0","0","0","0","18","11/02/20 14:34:04","Default description","yes","simont_HV.osexp","C:\Users\admin\Desktop\채은\!MouseTracking_final","no","sans","no","18","no","black","no","yes","768","60","None","60","30","legacy","18","18","1","C:/Users/admin/Desktop/채은/!MouseTracking_final/subject-16.csv","legacy","2","2","2","Kafkaesque Koffka","3.2.6","0","green","space","NA","None","green","start","space","NA","NA","NA","NA","499","75440","NA","250","499","299","27902","NA","NA","NA","NA","2","legacy","1024","2","48000","-16","experiment","16","even","legacy","red","green","blue","yellow","1","30333","NA","NA","160970","2425","NA","159715","160219","160471","159415","110103","2429","160984","161984","160219","160471","NA","NA","NA","NA","159415","NA","NA","NA","NA","NA","NA","105773","159413","[160220.0, 160230.0, 160240.0, 160250.0, 160260.0, 160270.0, 160280.0, 160290.0, 160300.0, 160310.0, 160320.0, 160330.0, 160340.0, 160350.0, 160360.0, 160370.0, 160380.0, 160390.0, 160400.0, 160410.0, 160420.0, 160430.0, 160440.0, 160450.0, 160460.0, 160470.0]","[160471.0, 160481.0, 160491.0, 160501.0, 160511.0, 160521.0, 160531.0, 160541.0, 160551.0, 160561.0, 160571.0, 160581.0, 160591.0, 160601.0, 160611.0, 160621.0, 160631.0, 160641.0, 160651.0, 160661.0, 160671.0, 160681.0, 160691.0, 160701.0, 160711.0, 160721.0, 160731.0, 160741.0, 160751.0, 160761.0, 160771.0, 160781.0, 160791.0, 160801.0, 160811.0, 160821.0, 160831.0, 160841.0, 160851.0, 160861.0, 160871.0, 160881.0, 160891.0, 160901.0, 160911.0, 160921.0, 160931.0, 160941.0, 160951.0, 160961.0, 160970]","example_experiment","17","11157","17","yes","768","4","[0, 0, 0, 0, 0, 0, 0, 0, 0, 0, 0, 0, 0, 0, 0, 0, 0, 0, 0, 0, 0, 0, 0, 0, 0, 0]","[0, 0, 0, 0, 0, 0, 0, 0, 3, 8, 16, 29, 47, 71, 96, 126, 157, 191, 222, 251, 277, 296, 309, 319, 324, 327, 327, 328, 328, 328, 328, 328, 328, 328, 328, 328, 328, 328, 328, 328, 328, 328, 328, 328, 328, 326, 324, 324, 323, 323, 323]","[0, 0, 0, 0, 0, 0, 0, 0, 0, 0, 0, 0, 0, 0, 0, 0, 0, 0, 0, 0, 0, 0, 0, 0, 0, 0]","[0, 0, 0, 0, 0, 0, 0, -1, -1, -1, -1, -1, -1, 0, 1, 2, 3, 4, 4, 4, 4, 4, 4, 4, 4, 4, 4, 4, 4, 4, 4, 4, 4, 4, 4, 4, 4, 4, 4, 4, 4, 4, 4, 4, 4, 4, 3, 3, 3, 3, 3]"
"100","100","659.555555556","659.555555556","black","no","prac","3","legacy","legacy","y.png","w.png","w.png","w.png","2","legacy","0","relative","1","undefined","NA","yellow","NA","undefined","1","undefined","undefined","yellow","4","0","3","0","19","0","NA","19","19","19","19","19","0","19","19","19","19","0","4","NA","NA","19","0","0","0","0","0","0","0","19","11/02/20 14:34:04","Default description","yes","simont_HV.osexp","C:\Users\admin\Desktop\채은\!MouseTracking_final","no","sans","no","18","no","black","no","yes","768","170","None","170","None","legacy","19","19","2","C:/Users/admin/Desktop/채은/!MouseTracking_final/subject-16.csv","legacy","1","2","2","Kafkaesque Koffka","3.2.6","0","yellow","space","NA","None","yellow","start","space","NA","NA","NA","NA","715","75440","NA","250","715","337","27902","NA","NA","NA","NA","2","legacy","1024","2","48000","-16","experiment","16","even","legacy","red","green","blue","yellow","2","30333","NA","NA","163908","2425","NA","162437","162941","163193","162099","110103","2429","163914","164914","162941","163193","NA","NA","NA","NA","162099","NA","NA","NA","NA","NA","NA","105773","162098","[162942.0, 162952.0, 162962.0, 162972.0, 162982.0, 162992.0, 163002.0, 163012.0, 163022.0, 163032.0, 163042.0, 163052.0, 163062.0, 163072.0, 163082.0, 163092.0, 163102.0, 163112.0, 163122.0, 163132.0, 163142.0, 163152.0, 163162.0, 163172.0, 163182.0, 163192.0]","[163193.0, 163203.0, 163213.0, 163223.0, 163233.0, 163243.0, 163253.0, 163263.0, 163273.0, 163283.0, 163293.0, 163303.0, 163313.0, 163323.0, 163333.0, 163343.0, 163353.0, 163363.0, 163373.0, 163383.0, 163393.0, 163403.0, 163413.0, 163423.0, 163433.0, 163443.0, 163453.0, 163463.0, 163473.0, 163483.0, 163493.0, 163503.0, 163513.0, 163523.0, 163533.0, 163543.0, 163553.0, 163563.0, 163573.0, 163583.0, 163593.0, 163603.0, 163613.0, 163623.0, 163633.0, 163643.0, 163653.0, 163663.0, 163673.0, 163683.0, 163693.0, 163703.0, 163713.0, 163723.0, 163733.0, 163743.0, 163753.0, 163763.0, 163773.0, 163783.0, 163793.0, 163803.0, 163813.0, 163823.0, 163833.0, 163843.0, 163853.0, 163863.0, 163873.0, 163883.0, 163893.0, 163903.0, 163908]","example_experiment","18","11872","18","yes","768","3","[0, 0, 0, 0, 0, 0, 0, 0, 0, 0, 0, 0, 0, 0, 0, 0, 0, 0, 0, 0, 0, 0, 0, 0, 0, 0]","[0, 0, 0, 0, 0, 0, 0, 0, 0, 0, 0, 0, 0, 0, 0, 0, 0, 0, 1, 2, 3, 5, 7, 9, 10, 12, 12, 12, 12, 12, 12, 12, 12, 12, 12, 12, 12, 12, 12, 11, 11, 10, 9, 8, 7, 5, 5, 4, 4, 4, 4, 4, 4, 4, 4, 4, 4, 4, 4, 4, 5, 5, 5, 5, 6, 6, 6, 6, 6, 7, 7, 7, 7]","[0, 0, 0, 0, 0, 0, 0, 0, 0, 0, 0, 0, 0, 0, 0, 0, 0, 0, 0, 0, 0, 0, 0, 0, 0, 0]","[0, 0, 0, 0, 0, 0, 0, 0, 0, 0, 0, 0, 0, 0, 0, 0, 0, 0, 3, 6, 9, 14, 20, 26, 34, 42, 51, 63, 74, 86, 97, 110, 125, 137, 149, 161, 172, 180, 190, 200, 208, 216, 224, 231, 239, 245, 251, 256, 260, 264, 267, 269, 270, 270, 271, 273, 274, 276, 277, 279, 281, 283, 285, 287, 289, 291, 293, 295, 297, 299, 300, 301, 301]"
"100","100","651.578947368","651.578947368","black","no","prac","2","legacy","legacy","w.png","w.png","r.png","w.png","1","legacy","0","relative","1","undefined","NA","red","NA","undefined","1","undefined","undefined","red","1","0","3","0","20","0","NA","20","20","20","20","20","0","20","20","20","20","0","4","NA","NA","20","0","0","0","0","0","0","0","20","11/02/20 14:34:04","Default description","yes","simont_HV.osexp","C:\Users\admin\Desktop\채은\!MouseTracking_final","no","sans","no","18","no","black","no","yes","768","90","None","90","None","legacy","20","20","2","C:/Users/admin/Desktop/채은/!MouseTracking_final/subject-16.csv","legacy","2","1","2","Kafkaesque Koffka","3.2.6","0","red","space","NA","None","red","start","space","NA","NA","NA","NA","508","75440","NA","250","508","325","27902","NA","NA","NA","NA","2","legacy","1024","2","48000","-16","experiment","16","even","legacy","red","green","blue","yellow","1","30333","NA","NA","166627","2425","NA","165363","165867","166119","165037","110103","2429","166644","167644","165867","166119","NA","NA","NA","NA","165037","NA","NA","NA","NA","NA","NA","105773","165035","[165868.0, 165878.0, 165888.0, 165898.0, 165908.0, 165918.0, 165928.0, 165938.0, 165948.0, 165958.0, 165968.0, 165978.0, 165988.0, 165998.0, 166008.0, 166018.0, 166028.0, 166038.0, 166048.0, 166058.0, 166068.0, 166078.0, 166088.0, 166098.0, 166108.0, 166118.0]","[166119.0, 166129.0, 166139.0, 166149.0, 166159.0, 166169.0, 166179.0, 166189.0, 166199.0, 166209.0, 166219.0, 166229.0, 166239.0, 166249.0, 166259.0, 166269.0, 166279.0, 166289.0, 166299.0, 166309.0, 166319.0, 166329.0, 166339.0, 166349.0, 166359.0, 166369.0, 166379.0, 166389.0, 166399.0, 166409.0, 166419.0, 166429.0, 166439.0, 166449.0, 166459.0, 166469.0, 166479.0, 166489.0, 166499.0, 166509.0, 166519.0, 166529.0, 166539.0, 166549.0, 166559.0, 166569.0, 166579.0, 166589.0, 166599.0, 166609.0, 166619.0, 166627]","example_experiment","19","12380","19","yes","768","4","[0, 0, 0, 0, 0, 0, 0, 0, 0, 0, 0, 0, 0, 0, 0, 0, 0, 0, 0, 0, 0, 0, 0, 0, 0, 0]","[0, 0, 0, 0, 0, 0, 0, 0, 0, 0, -4, -12, -21, -35, -51, -73, -95, -120, -146, -165, -181, -195, -203, -210, -214, -217, -220, -223, -225, -228, -232, -235, -239, -244, -250, -256, -262, -269, -276, -282, -288, -294, -300, -305, -310, -314, -317, -319, -320, -320, -320, -320]","[0, 0, 0, 0, 0, 0, 0, 0, 0, 0, 0, 0, 0, 0, 0, 0, 0, 0, 0, 0, 0, 0, 0, 0, 0, 0]","[0, 0, 0, 0, 0, 0, 0, 0, 0, 0, 0, 2, 3, 4, 4, 3, 1, -1, -2, -2, -3, -4, -4, -5, -5, -5, -5, -5, -5, -5, -5, -5, -5, -5, -5, -5, -4, -4, -4, -3, -3, -3, -2, -1, -1, -1, 0, 0, 1, 1, 1, 1]"
"100","100","650.3","650.3","black","no","prac","4","legacy","legacy","w.png","w.png","w.png","y.png","2","legacy","0","relative","1","undefined","NA","yellow","NA","undefined","1","undefined","undefined","yellow","4","0","3","0","21","0","NA","21","21","21","21","21","0","21","21","21","21","0","4","NA","NA","21","0","0","0","0","0","0","0","21","11/02/20 14:34:04","Default description","yes","simont_HV.osexp","C:\Users\admin\Desktop\채은\!MouseTracking_final","no","sans","no","18","no","black","no","yes","768","30","None","30","None","legacy","21","21","1","C:/Users/admin/Desktop/채은/!MouseTracking_final/subject-16.csv","legacy","2","2","1","Kafkaesque Koffka","3.2.6","0","yellow","space","NA","None","yellow","start","space","NA","NA","NA","NA","626","75440","NA","250","626","302","27902","NA","NA","NA","NA","2","legacy","1024","2","48000","-16","experiment","16","even","legacy","red","green","blue","yellow","2","30333","NA","NA","169450","2425","NA","168068","168572","168824","167765","110103","2429","169454","170454","168572","168824","NA","NA","NA","NA","167765","NA","NA","NA","NA","NA","NA","105773","167764","[168573.0, 168583.0, 168593.0, 168603.0, 168613.0, 168623.0, 168633.0, 168643.0, 168653.0, 168663.0, 168673.0, 168683.0, 168693.0, 168703.0, 168713.0, 168723.0, 168733.0, 168743.0, 168753.0, 168763.0, 168773.0, 168783.0, 168793.0, 168803.0, 168813.0, 168823.0]","[168824.0, 168834.0, 168844.0, 168854.0, 168864.0, 168874.0, 168884.0, 168894.0, 168904.0, 168914.0, 168924.0, 168934.0, 168944.0, 168954.0, 168964.0, 168974.0, 168984.0, 168994.0, 169004.0, 169014.0, 169024.0, 169034.0, 169044.0, 169054.0, 169064.0, 169074.0, 169084.0, 169094.0, 169104.0, 169114.0, 169124.0, 169134.0, 169144.0, 169154.0, 169164.0, 169174.0, 169184.0, 169194.0, 169204.0, 169214.0, 169224.0, 169234.0, 169244.0, 169254.0, 169264.0, 169274.0, 169284.0, 169294.0, 169304.0, 169314.0, 169324.0, 169334.0, 169344.0, 169354.0, 169364.0, 169374.0, 169384.0, 169394.0, 169404.0, 169414.0, 169424.0, 169434.0, 169444.0, 169450]","example_experiment","20","13006","20","yes","768","2","[0, 0, 0, 0, 0, 0, 0, 0, 0, 0, 0, 0, 0, 0, 0, 0, 0, 0, 0, 0, 0, 0, 0, 0, 0, 0]","[0, 0, 0, 0, 0, 0, 0, 0, 0, 0, 0, 0, 0, 0, 0, 0, 0, 0, 0, 0, -1, -1, -1, -2, -3, -3, -3, -3, -3, -3, -3, -3, -2, 0, 2, 4, 4, 5, 6, 6, 6, 4, 3, 1, 0, -1, -2, -3, -4, -4, -5, -5, -5, -5, -5, -5, -5, -5, -5, -5, -5, -5, -5, -5]","[0, 0, 0, 0, 0, 0, 0, 0, 0, 0, 0, 0, 0, 0, 0, 0, 0, 0, 0, 0, 0, 0, 0, 0, 0, 0]","[0, 0, 0, 0, -3, -9, -13, -18, -24, -33, -41, -52, -61, -67, -71, -71, -71, -71, -71, -71, -65, -57, -47, -37, -27, -13, 1, 16, 35, 52, 69, 90, 112, 134, 150, 167, 179, 192, 207, 220, 231, 243, 254, 264, 273, 280, 288, 294, 299, 304, 307, 310, 311, 312, 312, 312, 312, 312, 312, 312, 312, 312, 312, 312]"
"100","100","654.666666667","654.666666667","black","no","prac","4","legacy","legacy","w.png","g.png","w.png","w.png","2","legacy","0","relative","1","undefined","NA","green","NA","undefined","1","undefined","undefined","green","2","0","3","0","22","0","NA","22","22","22","22","22","0","22","22","22","22","0","4","NA","NA","22","0","0","0","0","0","0","0","22","11/02/20 14:34:04","Default description","yes","simont_HV.osexp","C:\Users\admin\Desktop\채은\!MouseTracking_final","no","sans","no","18","no","black","no","yes","768","40","None","40","None","legacy","22","22","1","C:/Users/admin/Desktop/채은/!MouseTracking_final/subject-16.csv","legacy","2","2","2","Kafkaesque Koffka","3.2.6","0","green","space","NA","None","green","start","space","NA","NA","NA","NA","742","75440","NA","250","742","471","27902","NA","NA","NA","NA","2","legacy","1024","2","48000","-16","experiment","16","even","legacy","red","green","blue","yellow","1","30333","NA","NA","172551","2425","NA","171053","171557","171809","170581","110103","2429","172554","173554","171557","171809","NA","NA","NA","NA","170581","NA","NA","NA","NA","NA","NA","105773","170580","[171558.0, 171568.0, 171578.0, 171588.0, 171598.0, 171608.0, 171618.0, 171628.0, 171638.0, 171648.0, 171658.0, 171668.0, 171678.0, 171688.0, 171698.0, 171708.0, 171718.0, 171728.0, 171738.0, 171748.0, 171758.0, 171768.0, 171778.0, 171788.0, 171798.0, 171808.0]","[171809.0, 171819.0, 171829.0, 171839.0, 171849.0, 171859.0, 171869.0, 171879.0, 171889.0, 171899.0, 171909.0, 171919.0, 171929.0, 171939.0, 171949.0, 171959.0, 171969.0, 171979.0, 171989.0, 171999.0, 172009.0, 172019.0, 172029.0, 172039.0, 172049.0, 172059.0, 172069.0, 172079.0, 172089.0, 172099.0, 172109.0, 172119.0, 172129.0, 172139.0, 172149.0, 172159.0, 172169.0, 172179.0, 172189.0, 172199.0, 172209.0, 172219.0, 172229.0, 172239.0, 172249.0, 172259.0, 172269.0, 172279.0, 172289.0, 172299.0, 172309.0, 172319.0, 172329.0, 172339.0, 172349.0, 172359.0, 172369.0, 172379.0, 172389.0, 172399.0, 172409.0, 172419.0, 172429.0, 172439.0, 172449.0, 172459.0, 172469.0, 172479.0, 172489.0, 172499.0, 172509.0, 172519.0, 172529.0, 172539.0, 172549.0, 172551]","example_experiment","21","13748","21","yes","768","4","[0, 0, 0, 0, 0, 0, 0, 0, 0, 0, 0, 0, 0, 0, 0, 0, 0, 0, 0, 0, 0, 0, 0, 0, 0, 0]","[0, 0, 0, 0, 0, -2, -6, -13, -21, -29, -41, -53, -70, -85, -101, -113, -124, -133, -141, -146, -149, -152, -152, -152, -152, -152, -152, -149, -143, -132, -114, -89, -59, -30, 4, 38, 70, 100, 130, 153, 174, 189, 201, 210, 215, 219, 222, 223, 225, 226, 229, 231, 234, 237, 241, 244, 249, 254, 259, 265, 271, 278, 286, 294, 301, 308, 311, 313, 314, 314, 314, 314, 314, 315, 315, 315]","[0, 0, 0, 0, 0, 0, 0, 0, 0, 0, 0, 0, 0, 0, 0, 0, 0, 0, 0, 0, 0, 0, 0, 0, 0, 0]","[0, 0, 0, 0, 0, 0, 0, 2, 4, 5, 6, 6, 6, 6, 6, 8, 8, 8, 9, 10, 11, 11, 11, 11, 11, 11, 11, 11, 11, 9, 6, 3, -1, -2, -3, -3, -3, -3, -3, -4, -5, -6, -7, -7, -7, -7, -7, -7, -7, -7, -7, -7, -8, -8, -8, -8, -8, -8, -8, -8, -8, -8, -8, -8, -8, -8, -8, -8, -8, -8, -8, -8, -8, -8, -8, -8]"
"100","100","663.227272727","663.227272727","black","no","prac","3","legacy","legacy","w.png","w.png","w.png","b.png","1","legacy","0","relative","1","undefined","NA","blue","NA","undefined","1","undefined","undefined","blue","3","0","3","0","23","0","NA","23","23","23","23","23","0","23","23","23","23","0","4","NA","NA","23","0","0","0","0","0","0","0","23","11/02/20 14:34:04","Default description","yes","simont_HV.osexp","C:\Users\admin\Desktop\채은\!MouseTracking_final","no","sans","no","18","no","black","no","yes","768","100","None","100","20","legacy","23","23","1","C:/Users/admin/Desktop/채은/!MouseTracking_final/subject-16.csv","legacy","1","2","2","Kafkaesque Koffka","3.2.6","0","blue","space","NA","None","blue","start","space","NA","NA","NA","NA","843","75440","NA","250","843","397","27902","NA","NA","NA","NA","2","legacy","1024","2","48000","-16","experiment","16","even","legacy","red","green","blue","yellow","2","30333","NA","NA","175656","2425","NA","174057","174561","174813","173659","110103","2429","175664","176664","174561","174813","NA","NA","NA","NA","173659","NA","NA","NA","NA","NA","NA","105773","173657","[174562.0, 174572.0, 174582.0, 174592.0, 174602.0, 174612.0, 174622.0, 174632.0, 174642.0, 174652.0, 174662.0, 174672.0, 174682.0, 174692.0, 174702.0, 174712.0, 174722.0, 174732.0, 174742.0, 174752.0, 174762.0, 174772.0, 174782.0, 174792.0, 174802.0, 174812.0]","[174813.0, 174823.0, 174833.0, 174843.0, 174853.0, 174863.0, 174873.0, 174883.0, 174893.0, 174903.0, 174913.0, 174923.0, 174933.0, 174943.0, 174953.0, 174963.0, 174973.0, 174983.0, 174993.0, 175003.0, 175013.0, 175023.0, 175033.0, 175043.0, 175053.0, 175063.0, 175073.0, 175083.0, 175093.0, 175103.0, 175113.0, 175123.0, 175133.0, 175143.0, 175153.0, 175163.0, 175173.0, 175183.0, 175193.0, 175203.0, 175213.0, 175223.0, 175233.0, 175243.0, 175253.0, 175263.0, 175273.0, 175283.0, 175293.0, 175303.0, 175313.0, 175323.0, 175333.0, 175343.0, 175353.0, 175363.0, 175373.0, 175383.0, 175393.0, 175403.0, 175413.0, 175423.0, 175433.0, 175443.0, 175453.0, 175463.0, 175473.0, 175483.0, 175493.0, 175503.0, 175513.0, 175523.0, 175533.0, 175543.0, 175553.0, 175563.0, 175573.0, 175583.0, 175593.0, 175603.0, 175613.0, 175623.0, 175633.0, 175643.0, 175653.0, 175656]","example_experiment","22","14591","22","yes","768","3","[0, 0, 0, 0, 0, 0, 0, 0, 0, 0, 0, 0, 0, 0, 0, 0, 0, 0, 0, 0, 0, 0, 0, 0, 0, 0]","[0, 0, 0, 0, 0, 0, 0, 0, 0, 0, 0, -1, -3, -4, -6, -7, -8, -8, -8, -8, -8, -8, -8, -8, -8, -8, -8, -8, -8, -8, -6, -3, -1, 1, 2, 3, 3, 3, 3, 3, 3, 3, 3, 3, 4, 4, 4, 4, 4, 2, 0, -3, -5, -6, -7, -8, -9, -9, -9, -9, -9, -10, -10, -10, -10, -10, -10, -10, -10, -10, -10, -10, -10, -10, -10, -10, -10, -10, -10, -10, -10, -10, -10, -10, -10, -10]","[0, 0, 0, 0, 0, 0, 0, 0, 0, 0, 0, 0, 0, 0, 0, 0, 0, 0, 0, 0, 0, 0, 0, 0, 0, 0]","[0, 0, 0, 0, 0, 0, 0, 0, 0, 0, 0, -1, -4, -7, -10, -12, -12, -12, -12, -12, -12, -12, -12, -12, -12, -11, -11, -11, -11, -12, -22, -35, -50, -65, -81, -97, -113, -128, -141, -151, -160, -168, -176, -182, -188, -193, -198, -203, -208, -212, -218, -223, -228, -232, -236, -240, -244, -248, -251, -254, -258, -263, -267, -270, -273, -276, -278, -281, -282, -285, -286, -288, -291, -292, -294, -295, -297, -298, -299, -300, -300, -301, -302, -302, -302, -302]"
"100","100","660.434782609","660.434782609","black","no","prac","1","legacy","legacy","w.png","r.png","w.png","w.png","1","legacy","0","relative","1","undefined","NA","red","NA","undefined","1","undefined","undefined","red","1","0","3","0","24","0","NA","24","24","24","24","24","0","24","24","24","24","0","4","NA","NA","24","0","0","0","0","0","0","0","24","11/02/20 14:34:04","Default description","yes","simont_HV.osexp","C:\Users\admin\Desktop\채은\!MouseTracking_final","no","sans","no","18","no","black","no","yes","768","180","None","180","None","legacy","24","24","1","C:/Users/admin/Desktop/채은/!MouseTracking_final/subject-16.csv","legacy","1","1","2","Kafkaesque Koffka","3.2.6","0","red","space","NA","None","red","start","space","NA","NA","NA","NA","599","75440","NA","250","599","274","27902","NA","NA","NA","NA","2","legacy","1024","2","48000","-16","experiment","16","even","legacy","red","green","blue","yellow","1","30333","NA","NA","178429","2425","NA","177074","177578","177830","176799","110103","2429","178434","179434","177578","177830","NA","NA","NA","NA","176799","NA","NA","NA","NA","NA","NA","105773","176798","[177579.0, 177589.0, 177599.0, 177609.0, 177619.0, 177629.0, 177639.0, 177649.0, 177659.0, 177669.0, 177679.0, 177689.0, 177699.0, 177709.0, 177719.0, 177729.0, 177739.0, 177749.0, 177759.0, 177769.0, 177779.0, 177789.0, 177799.0, 177809.0, 177819.0, 177829.0]","[177830.0, 177840.0, 177850.0, 177860.0, 177870.0, 177880.0, 177890.0, 177900.0, 177910.0, 177920.0, 177930.0, 177940.0, 177950.0, 177960.0, 177970.0, 177980.0, 177990.0, 178000.0, 178010.0, 178020.0, 178030.0, 178040.0, 178050.0, 178060.0, 178070.0, 178080.0, 178090.0, 178100.0, 178110.0, 178120.0, 178130.0, 178140.0, 178150.0, 178160.0, 178170.0, 178180.0, 178190.0, 178200.0, 178210.0, 178220.0, 178230.0, 178240.0, 178250.0, 178260.0, 178270.0, 178280.0, 178290.0, 178300.0, 178310.0, 178320.0, 178330.0, 178340.0, 178350.0, 178360.0, 178370.0, 178380.0, 178390.0, 178400.0, 178410.0, 178420.0, 178429]","example_experiment","23","15190","23","yes","768","3","[0, 0, 0, 0, 0, 0, 0, 0, 0, 0, 0, 0, 0, 0, 0, 0, 0, 0, 0, 0, 0, 0, 0, 0, 0, 0]","[0, 0, 0, 0, 0, 0, 0, 0, 0, 0, 0, 0, 0, 0, 0, 0, 0, 0, 0, -1, -5, -11, -18, -31, -50, -73, -101, -134, -168, -198, -223, -240, -253, -260, -262, -262, -262, -262, -262, -263, -265, -267, -268, -269, -271, -273, -276, -280, -285, -290, -295, -300, -304, -307, -310, -313, -316, -318, -320, -321, -321]","[0, 0, 0, 0, 0, 0, 0, 0, 0, 0, 0, 0, 0, 0, 0, 0, 0, 0, 0, 0, 0, 0, 0, 0, 0, 0]","[0, 0, 0, 0, 0, 0, 0, 0, 0, 0, 0, 0, 0, 0, 0, 0, 0, 0, 0, 0, 0, 0, 1, 2, 2, 2, 2, 1, 1, 1, 1, 1, 1, 1, 1, 1, 1, 1, 1, 1, 2, 3, 3, 4, 4, 4, 5, 6, 6, 7, 7, 7, 7, 7, 8, 8, 8, 8, 8, 8, 8]"
"100","100","659.541666667","659.541666667","black","no","prac","2","legacy","legacy","w.png","w.png","w.png","y.png","2","legacy","0","relative","1","undefined","NA","yellow","NA","undefined","1","undefined","undefined","yellow","4","0","3","0","25","0","NA","25","25","25","25","25","0","25","25","25","25","0","4","NA","NA","25","0","0","0","0","0","0","0","25","11/02/20 14:34:04","Default description","yes","simont_HV.osexp","C:\Users\admin\Desktop\채은\!MouseTracking_final","no","sans","no","18","no","black","no","yes","768","210","None","210","0","legacy","25","25","1","C:/Users/admin/Desktop/채은/!MouseTracking_final/subject-16.csv","legacy","2","1","1","Kafkaesque Koffka","3.2.6","0","yellow","space","NA","None","yellow","start","space","NA","NA","NA","NA","639","75440","NA","250","639","371","27902","NA","NA","NA","NA","2","legacy","1024","2","48000","-16","experiment","16","even","legacy","red","green","blue","yellow","2","30333","NA","NA","181314","2425","NA","179919","180423","180675","179547","110103","2429","181344","182344","180423","180675","NA","NA","NA","NA","179547","NA","NA","NA","NA","NA","NA","105773","179545","[180424.0, 180434.0, 180444.0, 180454.0, 180464.0, 180474.0, 180484.0, 180494.0, 180504.0, 180514.0, 180524.0, 180534.0, 180544.0, 180554.0, 180564.0, 180574.0, 180584.0, 180594.0, 180604.0, 180614.0, 180624.0, 180634.0, 180644.0, 180654.0, 180664.0, 180674.0]","[180675.0, 180685.0, 180695.0, 180705.0, 180715.0, 180725.0, 180735.0, 180745.0, 180755.0, 180765.0, 180775.0, 180785.0, 180795.0, 180805.0, 180815.0, 180825.0, 180835.0, 180845.0, 180855.0, 180865.0, 180875.0, 180885.0, 180895.0, 180905.0, 180915.0, 180925.0, 180935.0, 180945.0, 180955.0, 180965.0, 180975.0, 180985.0, 180995.0, 181005.0, 181015.0, 181025.0, 181035.0, 181045.0, 181055.0, 181065.0, 181075.0, 181085.0, 181095.0, 181105.0, 181115.0, 181125.0, 181135.0, 181145.0, 181155.0, 181165.0, 181175.0, 181185.0, 181195.0, 181205.0, 181215.0, 181225.0, 181235.0, 181245.0, 181255.0, 181265.0, 181275.0, 181285.0, 181295.0, 181305.0, 181314]","example_experiment","24","15829","24","yes","768","2","[0, 0, 0, 0, 0, 0, 0, 0, 0, 0, 0, 0, 0, 0, 0, 0, 0, 0, 0, 0, 0, 0, 0, 0, 0, 0]","[0, 0, 0, 0, 0, 0, 0, 0, 0, 0, 0, 0, 0, 0, 0, 0, 0, 0, 0, 0, 0, 0, 0, 0, 1, 2, 3, 4, 5, 7, 9, 12, 15, 16, 18, 19, 19, 19, 19, 19, 19, 19, 19, 18, 18, 17, 16, 15, 13, 12, 11, 10, 8, 7, 6, 6, 6, 5, 5, 5, 5, 5, 5, 5, 5]","[0, 0, 0, 0, 0, 0, 0, 0, 0, 0, 0, 0, 0, 0, 0, 0, 0, 0, 0, 0, 0, 0, 0, 0, 0, 0]","[0, 0, 0, 0, 0, 0, 0, 0, 0, 0, 0, 0, 0, 0, 0, 0, 0, 0, 0, 0, 0, 0, 1, 4, 9, 13, 17, 23, 30, 39, 47, 58, 70, 84, 98, 113, 128, 145, 162, 178, 194, 208, 223, 235, 247, 257, 266, 275, 286, 293, 300, 306, 312, 316, 320, 324, 328, 331, 333, 334, 336, 336, 336, 336, 336]"
"100","100","660.08","660.08","black","no","prac","3","legacy","legacy","w.png","w.png","g.png","w.png","2","legacy","0","relative","1","undefined","NA","green","NA","undefined","1","undefined","undefined","green","2","0","3","0","26","0","NA","26","26","26","26","26","0","26","26","26","26","0","4","NA","NA","26","0","0","0","0","0","0","0","26","11/02/20 14:34:04","Default description","yes","simont_HV.osexp","C:\Users\admin\Desktop\채은\!MouseTracking_final","no","sans","no","18","no","black","no","yes","768","210","None","210","None","legacy","26","26","2","C:/Users/admin/Desktop/채은/!MouseTracking_final/subject-16.csv","legacy","1","2","1","Kafkaesque Koffka","3.2.6","0","green","space","NA","None","green","start","space","NA","NA","NA","NA","673","75440","NA","250","673","270","27902","NA","NA","NA","NA","2","legacy","1024","2","48000","-16","experiment","16","even","legacy","red","green","blue","yellow","1","30333","NA","NA","184148","2425","NA","182719","183223","183475","182448","110103","2429","184154","185154","183223","183475","NA","NA","NA","NA","182448","NA","NA","NA","NA","NA","NA","105773","182446","[183224.0, 183234.0, 183244.0, 183254.0, 183264.0, 183274.0, 183284.0, 183294.0, 183304.0, 183314.0, 183324.0, 183334.0, 183344.0, 183354.0, 183364.0, 183374.0, 183384.0, 183394.0, 183404.0, 183414.0, 183424.0, 183434.0, 183444.0, 183454.0, 183464.0, 183474.0]","[183475.0, 183485.0, 183495.0, 183505.0, 183515.0, 183525.0, 183535.0, 183545.0, 183555.0, 183565.0, 183575.0, 183585.0, 183595.0, 183605.0, 183615.0, 183625.0, 183635.0, 183645.0, 183655.0, 183665.0, 183675.0, 183685.0, 183695.0, 183705.0, 183715.0, 183725.0, 183735.0, 183745.0, 183755.0, 183765.0, 183775.0, 183785.0, 183795.0, 183805.0, 183815.0, 183825.0, 183835.0, 183845.0, 183855.0, 183865.0, 183875.0, 183885.0, 183895.0, 183905.0, 183915.0, 183925.0, 183935.0, 183945.0, 183955.0, 183965.0, 183975.0, 183985.0, 183995.0, 184005.0, 184015.0, 184025.0, 184035.0, 184045.0, 184055.0, 184065.0, 184075.0, 184085.0, 184095.0, 184105.0, 184115.0, 184125.0, 184135.0, 184145.0, 184148]","example_experiment","25","16502","25","yes","768","1","[0, 0, 0, 0, 0, 0, 0, 0, 0, 0, 0, 0, 0, 0, 0, 0, 0, 0, 0, 0, 0, 0, 0, 0, 0, 0]","[0, 0, 0, 0, 0, 0, 0, 0, 0, 0, 0, 0, 0, 0, 0, 0, 0, 0, 0, 0, 0, 0, 1, 5, 12, 23, 36, 55, 76, 97, 123, 149, 169, 193, 210, 225, 236, 245, 251, 254, 256, 256, 256, 256, 256, 256, 256, 256, 256, 256, 257, 258, 261, 267, 273, 280, 289, 295, 301, 305, 308, 310, 313, 315, 318, 321, 323, 325, 325]","[0, 0, 0, 0, 0, 0, 0, 0, 0, 0, 0, 0, 0, 0, 0, 0, 0, 0, 0, 0, 0, 0, 0, 0, 0, 0]","[0, 0, 0, 0, 0, 0, 0, 0, 0, 0, 0, 0, 0, 0, 0, 0, 0, 0, 0, 0, 0, 0, 0, -1, -1, -2, -3, -3, -3, -4, -4, -4, -4, -4, -4, -4, -4, -4, -4, -4, -5, -5, -5, -5, -5, -5, -5, -5, -5, -5, -5, -5, -6, -6, -6, -6, -6, -7, -7, -8, -8, -8, -8, -9, -9, -9, -9, -9, -9]"
"100","100","662.153846154","662.153846154","black","no","prac","2","legacy","legacy","b.png","w.png","w.png","w.png","1","legacy","0","relative","1","undefined","NA","blue","NA","undefined","1","undefined","undefined","blue","3","0","3","0","27","0","NA","27","27","27","27","27","0","27","27","27","27","0","4","NA","NA","27","0","0","0","0","0","0","0","27","11/02/20 14:34:04","Default description","yes","simont_HV.osexp","C:\Users\admin\Desktop\채은\!MouseTracking_final","no","sans","no","18","no","black","no","yes","768","80","None","80","None","legacy","27","27","2","C:/Users/admin/Desktop/채은/!MouseTracking_final/subject-16.csv","legacy","2","1","2","Kafkaesque Koffka","3.2.6","0","blue","space","NA","None","blue","start","space","NA","NA","NA","NA","714","75440","NA","250","714","254","27902","NA","NA","NA","NA","2","legacy","1024","2","48000","-16","experiment","16","even","legacy","red","green","blue","yellow","2","30333","NA","NA","187014","2425","NA","185544","186048","186300","185289","110103","2429","187034","188034","186048","186300","NA","NA","NA","NA","185289","NA","NA","NA","NA","NA","NA","105773","185288","[186049.0, 186059.0, 186069.0, 186079.0, 186089.0, 186099.0, 186109.0, 186119.0, 186129.0, 186139.0, 186149.0, 186159.0, 186169.0, 186179.0, 186189.0, 186199.0, 186209.0, 186219.0, 186229.0, 186239.0, 186249.0, 186259.0, 186269.0, 186279.0, 186289.0, 186299.0]","[186300.0, 186310.0, 186320.0, 186330.0, 186340.0, 186350.0, 186360.0, 186370.0, 186380.0, 186390.0, 186400.0, 186410.0, 186420.0, 186430.0, 186440.0, 186450.0, 186460.0, 186470.0, 186480.0, 186490.0, 186500.0, 186510.0, 186520.0, 186530.0, 186540.0, 186550.0, 186560.0, 186570.0, 186580.0, 186590.0, 186600.0, 186610.0, 186620.0, 186630.0, 186640.0, 186650.0, 186660.0, 186670.0, 186680.0, 186690.0, 186700.0, 186710.0, 186720.0, 186730.0, 186740.0, 186750.0, 186760.0, 186770.0, 186780.0, 186790.0, 186800.0, 186810.0, 186820.0, 186830.0, 186840.0, 186850.0, 186860.0, 186870.0, 186880.0, 186890.0, 186900.0, 186910.0, 186920.0, 186930.0, 186940.0, 186950.0, 186960.0, 186970.0, 186980.0, 186990.0, 187000.0, 187010.0, 187014]","example_experiment","26","17216","26","yes","768","4","[0, 0, 0, 0, 0, 0, 0, 0, 0, 0, 0, 0, 0, 0, 0, 0, 0, 0, 0, 0, 0, 0, 0, 0, 0, 0]","[0, 0, 0, 0, 0, 0, 0, 0, 0, -1, -2, -5, -8, -11, -14, -16, -16, -16, -16, -16, -16, -16, -15, -14, -14, -13, -11, -10, -7, -7, -7, -9, -11, -13, -16, -18, -20, -22, -24, -24, -24, -26, -28, -28, -28, -28, -28, -28, -28, -28, -28, -28, -28, -28, -28, -28, -28, -28, -27, -23, -20, -16, -11, -6, -1, 2, 4, 4, 5, 5, 5, 5, 6]","[0, 0, 0, 0, 0, 0, 0, 0, 0, 0, 0, 0, 0, 0, 0, 0, 0, 0, 0, 0, 0, 0, 0, 0, 0, 0]","[0, 0, 0, 0, 0, 0, 0, 0, 0, 0, 5, 12, 22, 31, 45, 56, 69, 79, 89, 95, 100, 103, 104, 104, 104, 104, 101, 96, 89, 79, 64, 46, 23, -5, -35, -67, -98, -128, -154, -182, -207, -227, -239, -243, -244, -244, -244, -244, -244, -244, -244, -244, -244, -244, -244, -244, -244, -244, -246, -248, -252, -257, -263, -268, -273, -278, -281, -284, -287, -289, -292, -294, -294]"
"100","100","655.481481481","655.481481481","black","no","prac","4","legacy","legacy","b.png","w.png","w.png","w.png","1","legacy","0","relative","1","undefined","NA","blue","NA","undefined","1","undefined","undefined","blue","3","0","3","0","28","0","NA","28","28","28","28","28","0","28","28","28","28","0","4","NA","NA","28","0","0","0","0","0","0","0","28","11/02/20 14:34:04","Default description","yes","simont_HV.osexp","C:\Users\admin\Desktop\채은\!MouseTracking_final","no","sans","no","18","no","black","no","yes","768","150","None","150","None","legacy","28","28","2","C:/Users/admin/Desktop/채은/!MouseTracking_final/subject-16.csv","legacy","2","2","2","Kafkaesque Koffka","3.2.6","0","blue","space","NA","None","blue","start","space","NA","NA","NA","NA","482","75440","NA","250","482","330","27902","NA","NA","NA","NA","2","legacy","1024","2","48000","-16","experiment","16","even","legacy","red","green","blue","yellow","2","30333","NA","NA","189715","2425","NA","188477","188981","189233","188146","110103","2429","189723","190723","188981","189233","NA","NA","NA","NA","188146","NA","NA","NA","NA","NA","NA","105773","188144","[188982.0, 188992.0, 189002.0, 189012.0, 189022.0, 189032.0, 189042.0, 189052.0, 189062.0, 189072.0, 189082.0, 189092.0, 189102.0, 189112.0, 189122.0, 189132.0, 189142.0, 189152.0, 189162.0, 189172.0, 189182.0, 189192.0, 189202.0, 189212.0, 189222.0, 189232.0]","[189233.0, 189243.0, 189253.0, 189263.0, 189273.0, 189283.0, 189293.0, 189303.0, 189313.0, 189323.0, 189333.0, 189343.0, 189353.0, 189363.0, 189373.0, 189383.0, 189393.0, 189403.0, 189413.0, 189423.0, 189433.0, 189443.0, 189453.0, 189463.0, 189473.0, 189483.0, 189493.0, 189503.0, 189513.0, 189523.0, 189533.0, 189543.0, 189553.0, 189563.0, 189573.0, 189583.0, 189593.0, 189603.0, 189613.0, 189623.0, 189633.0, 189643.0, 189653.0, 189663.0, 189673.0, 189683.0, 189693.0, 189703.0, 189713.0, 189715]","example_experiment","27","17698","27","yes","768","4","[0, 0, 0, 0, 0, 0, 0, 0, 0, 0, 0, 0, 0, 0, 0, 0, 0, 0, 0, 0, 0, 0, 0, 0, 0, 0]","[0, 0, 0, 0, 0, 0, 0, 0, 0, 0, 0, 0, 0, 0, 0, 0, 0, 1, 1, 1, -1, -3, -5, -7, -9, -10, -10, -12, -14, -15, -15, -15, -15, -16, -16, -17, -17, -17, -17, -17, -17, -17, -17, -19, -19, -19, -19, -20, -20, -20]","[0, 0, 0, 0, 0, 0, 0, 0, 0, 0, 0, 0, 0, 0, 0, 0, 0, 0, 0, 0, 0, 0, 0, 0, 0, 0]","[0, 0, 0, 0, 0, 0, 0, 0, 0, 0, 0, 0, 0, 0, 0, 0, -3, -9, -18, -28, -44, -63, -84, -108, -135, -169, -206, -239, -263, -282, -292, -297, -302, -307, -310, -311, -311, -311, -311, -311, -311, -311, -311, -310, -308, -307, -306, -306, -306, -306]"
"100","100","654.5","654.5","black","no","prac","3","legacy","legacy","w.png","w.png","g.png","w.png","2","legacy","0","relative","1","undefined","NA","green","NA","undefined","1","undefined","undefined","green","2","0","3","0","29","0","NA","29","29","29","29","29","0","29","29","29","29","0","4","NA","NA","29","0","0","0","0","0","0","0","29","11/02/20 14:34:04","Default description","yes","simont_HV.osexp","C:\Users\admin\Desktop\채은\!MouseTracking_final","no","sans","no","18","no","black","no","yes","768","230","None","230","None","legacy","29","29","2","C:/Users/admin/Desktop/채은/!MouseTracking_final/subject-16.csv","legacy","1","2","2","Kafkaesque Koffka","3.2.6","0","green","space","NA","None","green","start","space","NA","NA","NA","NA","628","75440","NA","250","628","280","27902","NA","NA","NA","NA","2","legacy","1024","2","48000","-16","experiment","16","even","legacy","red","green","blue","yellow","1","30333","NA","NA","192500","2425","NA","191116","191620","191872","190834","110103","2429","192514","193514","191620","191872","NA","NA","NA","NA","190834","NA","NA","NA","NA","NA","NA","105773","190833","[191621.0, 191631.0, 191641.0, 191651.0, 191661.0, 191671.0, 191681.0, 191691.0, 191701.0, 191711.0, 191721.0, 191731.0, 191741.0, 191751.0, 191761.0, 191771.0, 191781.0, 191791.0, 191801.0, 191811.0, 191821.0, 191831.0, 191841.0, 191851.0, 191861.0, 191871.0]","[191872.0, 191882.0, 191892.0, 191902.0, 191912.0, 191922.0, 191932.0, 191942.0, 191952.0, 191962.0, 191972.0, 191982.0, 191992.0, 192002.0, 192012.0, 192022.0, 192032.0, 192042.0, 192052.0, 192062.0, 192072.0, 192082.0, 192092.0, 192102.0, 192112.0, 192122.0, 192132.0, 192142.0, 192152.0, 192162.0, 192172.0, 192182.0, 192192.0, 192202.0, 192212.0, 192222.0, 192232.0, 192242.0, 192252.0, 192262.0, 192272.0, 192282.0, 192292.0, 192302.0, 192312.0, 192322.0, 192332.0, 192342.0, 192352.0, 192362.0, 192372.0, 192382.0, 192392.0, 192402.0, 192412.0, 192422.0, 192432.0, 192442.0, 192452.0, 192462.0, 192472.0, 192482.0, 192492.0, 192500]","example_experiment","28","18326","28","yes","768","3","[0, 0, 0, 0, 0, 0, 0, 0, 0, 0, 0, 0, 0, 0, 0, 0, 0, 0, 0, 0, 0, 0, 0, 0, 0, 0]","[0, 0, 0, 0, 0, 0, 0, 0, 0, 0, 0, 0, 0, 0, 0, 0, 0, 0, 0, 0, 0, 0, 0, 0, -1, -4, -5, -5, -5, -5, -5, -5, 0, 9, 22, 40, 64, 92, 126, 160, 195, 233, 264, 290, 308, 319, 323, 324, 324, 324, 324, 324, 322, 322, 321, 320, 320, 319, 318, 318, 318, 318, 318, 318]","[0, 0, 0, 0, 0, 0, 0, 0, 0, 0, 0, 0, 0, 0, 0, 0, 0, 0, 0, 0, 0, 0, 0, 0, 0, 0]","[0, 0, 0, 0, 0, 0, 0, 0, 0, 0, 0, 0, 0, 0, 0, 0, 0, 0, 0, 0, 0, 0, 0, 0, 0, 2, 2, 2, 2, 2, 2, 2, 1, -1, -4, -6, -7, -7, -7, -7, -7, -6, -5, -4, -3, -3, -2, -2, -2, -2, -2, -2, -2, -2, -1, -1, -1, 0, 0, 0, 0, 0, 0, 0]"
"100","100","654.5","654.5","black","no","block1","0","legacy","legacy","w.png","r.png","w.png","w.png","1","legacy","0","relative","undefined","undefined","NA","green","NA","undefined","1","undefined","undefined","red","1","0","3","0","30","0","NA","30","30","30","30","30","0","30","30","30","30","0","4","NA","NA","30","0","0","0","0","0","0","0","30","11/02/20 14:34:04","Default description","yes","simont_HV.osexp","C:\Users\admin\Desktop\채은\!MouseTracking_final","no","sans","no","18","no","black","no","yes","768","1180","None","230","1180","legacy","0","29","1","C:/Users/admin/Desktop/채은/!MouseTracking_final/subject-16.csv","legacy","1","0","0","Kafkaesque Koffka","3.2.6","0","None","space","NA","None","green","None","space","space","NA","NA","NA","1500","75440","NA","250","628","1500","27902","42515","NA","NA","NA","2","legacy","1024","2","48000","-16","experiment","16","even","legacy","red","green","blue","yellow","1","30333","NA","NA","192500","2425","NA","191116","191620","191872","236142","237642","2429","237784","238784","191620","191872","193561","NA","NA","NA","236142","236077","NA","NA","NA","NA","NA","105773","236141","[191621.0, 191631.0, 191641.0, 191651.0, 191661.0, 191671.0, 191681.0, 191691.0, 191701.0, 191711.0, 191721.0, 191731.0, 191741.0, 191751.0, 191761.0, 191771.0, 191781.0, 191791.0, 191801.0, 191811.0, 191821.0, 191831.0, 191841.0, 191851.0, 191861.0, 191871.0]","[191872.0, 191882.0, 191892.0, 191902.0, 191912.0, 191922.0, 191932.0, 191942.0, 191952.0, 191962.0, 191972.0, 191982.0, 191992.0, 192002.0, 192012.0, 192022.0, 192032.0, 192042.0, 192052.0, 192062.0, 192072.0, 192082.0, 192092.0, 192102.0, 192112.0, 192122.0, 192132.0, 192142.0, 192152.0, 192162.0, 192172.0, 192182.0, 192192.0, 192202.0, 192212.0, 192222.0, 192232.0, 192242.0, 192252.0, 192262.0, 192272.0, 192282.0, 192292.0, 192302.0, 192312.0, 192322.0, 192332.0, 192342.0, 192352.0, 192362.0, 192372.0, 192382.0, 192392.0, 192402.0, 192412.0, 192422.0, 192432.0, 192442.0, 192452.0, 192462.0, 192472.0, 192482.0, 192492.0, 192500]","example_experiment","28","18326","28","yes","768","0","[0, 0, 0, 0, 0, 0, 0, 0, 0, 0, 0, 0, 0, 0, 0, 0, 0, 0, 0, 0, 0, 0, 0, 0, 0, 0]","[0, 0, 0, 0, 0, 0, 0, 0, 0, 0, 0, 0, 0, 0, 0, 0, 0, 0, 0, 0, 0, 0, 0, 0, -1, -4, -5, -5, -5, -5, -5, -5, 0, 9, 22, 40, 64, 92, 126, 160, 195, 233, 264, 290, 308, 319, 323, 324, 324, 324, 324, 324, 322, 322, 321, 320, 320, 319, 318, 318, 318, 318, 318, 318]","[0, 0, 0, 0, 0, 0, 0, 0, 0, 0, 0, 0, 0, 0, 0, 0, 0, 0, 0, 0, 0, 0, 0, 0, 0, 0]","[0, 0, 0, 0, 0, 0, 0, 0, 0, 0, 0, 0, 0, 0, 0, 0, 0, 0, 0, 0, 0, 0, 0, 0, 0, 2, 2, 2, 2, 2, 2, 2, 1, -1, -4, -6, -7, -7, -7, -7, -7, -6, -5, -4, -3, -3, -2, -2, -2, -2, -2, -2, -2, -2, -1, -1, -1, 0, 0, 0, 0, 0, 0, 0]"
"100","100","655.689655172","655.689655172","black","no","block1","0","legacy","legacy","w.png","w.png","w.png","b.png","1","legacy","0","relative","1","undefined","NA","blue","NA","undefined","1","undefined","undefined","blue","3","0","3","0","31","0","NA","31","31","31","31","31","0","31","31","31","31","0","4","NA","NA","31","0","0","0","0","0","0","0","31","11/02/20 14:34:04","Default description","yes","simont_HV.osexp","C:\Users\admin\Desktop\채은\!MouseTracking_final","no","sans","no","18","no","black","no","yes","768","40","101","40","None","legacy","1","29","1","C:/Users/admin/Desktop/채은/!MouseTracking_final/subject-16.csv","legacy","1","1","0","Kafkaesque Koffka","3.2.6","0","blue","space","NA","None","blue","start","space","space","NA","NA","NA","689","75440","NA","250","689","30","27902","42515","NA","NA","NA","2","legacy","1024","2","48000","-16","experiment","16","even","legacy","red","green","blue","yellow","2","30333","NA","NA","240393","2425","NA","238949","239453","239704","238917","237642","2429","240414","241414","239453","239704","193561","NA","NA","NA","238917","236077","NA","NA","NA","NA","NA","105773","238916","[239453.0, 239464.0, 239474.0, 239484.0, 239494.0, 239504.0, 239514.0, 239524.0, 239534.0, 239544.0, 239554.0, 239564.0, 239574.0, 239584.0, 239594.0, 239604.0, 239614.0, 239624.0, 239634.0, 239644.0, 239654.0, 239664.0, 239674.0, 239684.0, 239694.0, 239703.0]","[239704.0, 239714.0, 239724.0, 239734.0, 239744.0, 239754.0, 239764.0, 239774.0, 239784.0, 239794.0, 239804.0, 239814.0, 239824.0, 239834.0, 239844.0, 239854.0, 239864.0, 239874.0, 239884.0, 239894.0, 239904.0, 239914.0, 239924.0, 239934.0, 239944.0, 239954.0, 239964.0, 239974.0, 239984.0, 239994.0, 240004.0, 240014.0, 240024.0, 240034.0, 240044.0, 240054.0, 240064.0, 240074.0, 240084.0, 240094.0, 240104.0, 240114.0, 240124.0, 240134.0, 240144.0, 240154.0, 240164.0, 240174.0, 240184.0, 240194.0, 240204.0, 240214.0, 240224.0, 240234.0, 240244.0, 240254.0, 240264.0, 240274.0, 240284.0, 240294.0, 240304.0, 240314.0, 240324.0, 240334.0, 240344.0, 240354.0, 240364.0, 240374.0, 240384.0, 240393]","example_experiment","29","19015","29","yes","768","0","[0, 0, 0, 0, 0, 0, 0, 0, 0, 0, 0, -3, -7, -11, -16, -21, -26, -30, -34, -36, -37, -37, -37, -37, -37, -37]","[-37, -37, -37, -37, -37, -37, -37, -36, -36, -34, -33, -32, -31, -31, -31, -31, -31, -32, -33, -35, -36, -37, -37, -38, -38, -39, -39, -39, -39, -39, -38, -36, -33, -31, -29, -28, -26, -26, -25, -24, -23, -22, -21, -19, -16, -15, -13, -12, -11, -11, -10, -9, -9, -9, -8, -7, -6, -5, -4, -4, -4, -4, -4, -4, -4, -4, -4, -4, -4, -4]","[0, 0, 0, 0, 0, 0, 0, 0, 0, 0, 0, 0, 0, 0, 0, 0, 0, 0, 0, 0, 0, 0, 0, 0, 0, 0]","[0, 0, 0, 0, 0, -1, -3, -5, -8, -12, -17, -24, -31, -41, -51, -60, -71, -82, -94, -103, -112, -122, -132, -147, -160, -175, -187, -199, -210, -221, -230, -239, -246, -252, -257, -261, -264, -267, -268, -268, -269, -271, -272, -274, -276, -278, -279, -281, -283, -283, -284, -285, -286, -288, -290, -292, -295, -297, -299, -301, -303, -304, -304, -305, -306, -306, -307, -307, -307, -307]"
"100","100","651.533333333","651.533333333","black","no","block1","1","legacy","legacy","w.png","r.png","w.png","w.png","1","legacy","0","relative","1","undefined","NA","red","NA","undefined","1","undefined","undefined","red","1","0","3","0","32","0","NA","32","32","32","32","32","0","32","32","32","32","0","4","NA","NA","32","0","0","0","0","0","0","0","32","11/02/20 14:34:04","Default description","yes","simont_HV.osexp","C:\Users\admin\Desktop\채은\!MouseTracking_final","no","sans","no","18","no","black","no","yes","768","70","None","70","None","legacy","2","29","1","C:/Users/admin/Desktop/채은/!MouseTracking_final/subject-16.csv","legacy","1","1","1","Kafkaesque Koffka","3.2.6","0","red","space","NA","None","red","start","space","space","NA","NA","NA","531","75440","NA","250","531","355","27902","42515","NA","NA","NA","2","legacy","1024","2","48000","-16","experiment","16","even","legacy","red","green","blue","yellow","1","30333","NA","NA","243185","2425","NA","241898","242402","242654","241542","237642","2429","243204","244204","242402","242654","193561","NA","NA","NA","241542","236077","NA","NA","NA","NA","NA","105773","241541","[242403.0, 242413.0, 242423.0, 242433.0, 242443.0, 242453.0, 242463.0, 242473.0, 242483.0, 242493.0, 242503.0, 242513.0, 242523.0, 242533.0, 242543.0, 242553.0, 242563.0, 242573.0, 242583.0, 242593.0, 242603.0, 242613.0, 242623.0, 242633.0, 242643.0, 242653.0]","[242654.0, 242664.0, 242674.0, 242684.0, 242694.0, 242704.0, 242714.0, 242724.0, 242734.0, 242744.0, 242754.0, 242764.0, 242774.0, 242784.0, 242794.0, 242804.0, 242814.0, 242824.0, 242834.0, 242844.0, 242854.0, 242864.0, 242874.0, 242884.0, 242894.0, 242904.0, 242914.0, 242924.0, 242934.0, 242944.0, 242954.0, 242964.0, 242974.0, 242984.0, 242994.0, 243004.0, 243014.0, 243024.0, 243034.0, 243044.0, 243054.0, 243064.0, 243074.0, 243084.0, 243094.0, 243104.0, 243114.0, 243124.0, 243134.0, 243144.0, 243154.0, 243164.0, 243174.0, 243184.0, 243185]","example_experiment","30","19546","30","yes","768","1","[0, 0, 0, 0, 0, 0, 0, 0, 0, 0, 0, 0, 0, 0, 0, 0, 0, 0, 0, 0, 0, 0, 0, 0, 0, 0]","[0, 0, 0, 0, 0, 0, 0, 0, -5, -12, -23, -35, -49, -64, -82, -102, -121, -141, -159, -174, -190, -204, -218, -227, -234, -241, -245, -249, -252, -255, -257, -260, -263, -264, -266, -267, -269, -270, -273, -275, -280, -284, -289, -295, -302, -310, -315, -321, -325, -328, -329, -329, -329, -329, -329]","[0, 0, 0, 0, 0, 0, 0, 0, 0, 0, 0, 0, 0, 0, 0, 0, 0, 0, 0, 0, 0, 0, 0, 0, 0, 0]","[0, 0, 0, 0, 0, 0, 0, 0, 0, 3, 6, 8, 9, 9, 9, 9, 9, 9, 9, 9, 9, 8, 6, 6, 5, 4, 4, 3, 3, 3, 2, 2, 1, 1, 1, 1, 1, 1, 0, 0, 0, -1, -1, -2, -3, -3, -4, -4, -4, -4, -5, -5, -5, -5, -5]"
"100","100","657.064516129","657.064516129","black","no","block1","2","legacy","legacy","w.png","w.png","w.png","y.png","2","legacy","0","relative","1","undefined","NA","yellow","NA","undefined","1","undefined","undefined","yellow","4","0","3","0","33","0","NA","33","33","33","33","33","0","33","33","33","33","0","4","NA","NA","33","0","0","0","0","0","0","0","33","11/02/20 14:34:04","Default description","yes","simont_HV.osexp","C:\Users\admin\Desktop\채은\!MouseTracking_final","no","sans","no","18","no","black","no","yes","768","10","None","10","130","legacy","3","29","1","C:/Users/admin/Desktop/채은/!MouseTracking_final/subject-16.csv","legacy","2","1","1","Kafkaesque Koffka","3.2.6","0","yellow","space","NA","None","yellow","start","space","space","NA","NA","NA","823","75440","NA","250","823","254","27902","42515","NA","NA","NA","2","legacy","1024","2","48000","-16","experiment","16","even","legacy","red","green","blue","yellow","2","30333","NA","NA","246165","2425","NA","244586","245090","245342","244331","237642","2429","246173","247173","245090","245342","193561","NA","NA","NA","244330","236077","NA","NA","NA","NA","NA","105773","244329","[245091.0, 245101.0, 245111.0, 245121.0, 245131.0, 245141.0, 245151.0, 245161.0, 245171.0, 245181.0, 245191.0, 245201.0, 245211.0, 245221.0, 245231.0, 245241.0, 245251.0, 245261.0, 245271.0, 245281.0, 245291.0, 245301.0, 245311.0, 245321.0, 245331.0, 245341.0]","[245342.0, 245352.0, 245362.0, 245372.0, 245382.0, 245392.0, 245402.0, 245412.0, 245422.0, 245432.0, 245442.0, 245452.0, 245462.0, 245472.0, 245482.0, 245492.0, 245502.0, 245512.0, 245522.0, 245532.0, 245542.0, 245552.0, 245562.0, 245572.0, 245582.0, 245592.0, 245602.0, 245612.0, 245622.0, 245632.0, 245642.0, 245652.0, 245662.0, 245672.0, 245682.0, 245692.0, 245702.0, 245712.0, 245722.0, 245732.0, 245742.0, 245752.0, 245762.0, 245772.0, 245782.0, 245792.0, 245802.0, 245812.0, 245822.0, 245832.0, 245842.0, 245852.0, 245862.0, 245872.0, 245882.0, 245892.0, 245902.0, 245912.0, 245922.0, 245932.0, 245942.0, 245952.0, 245962.0, 245972.0, 245982.0, 245992.0, 246002.0, 246012.0, 246022.0, 246032.0, 246042.0, 246052.0, 246062.0, 246072.0, 246082.0, 246092.0, 246102.0, 246112.0, 246122.0, 246132.0, 246142.0, 246152.0, 246162.0, 246165]","example_experiment","31","20369","31","yes","768","2","[0, 0, 0, 0, 0, 0, 0, 0, 0, 0, 0, 0, 0, 0, 0, 0, 0, 0, 0, 0, 0, 0, 0, 0, 0, 0]","[0, 0, 0, 0, 0, 0, 0, 0, -1, -2, -3, -4, -6, -8, -10, -12, -13, -13, -13, -13, -13, -13, -13, -13, -13, -13, -10, -8, -5, -1, 4, 10, 18, 28, 42, 60, 75, 95, 112, 130, 145, 159, 167, 171, 172, 171, 166, 158, 147, 138, 130, 124, 119, 115, 112, 109, 105, 100, 95, 90, 85, 81, 76, 72, 67, 62, 56, 50, 44, 38, 31, 26, 21, 17, 13, 10, 8, 6, 4, 2, 1, 1, 1, 1]","[0, 0, 0, 0, 0, 0, 0, 0, 0, 0, 0, 0, 0, 0, 0, 0, 0, 0, 0, 0, 0, 0, 0, 0, 0, 0]","[0, 0, -3, -10, -19, -33, -50, -75, -105, -135, -167, -195, -218, -235, -250, -259, -265, -269, -273, -275, -275, -275, -275, -275, -275, -274, -270, -266, -260, -255, -249, -240, -228, -213, -195, -170, -151, -127, -109, -90, -76, -62, -53, -45, -37, -29, -18, -5, 11, 24, 33, 41, 47, 53, 61, 68, 78, 91, 104, 117, 131, 146, 161, 176, 193, 210, 226, 242, 257, 274, 290, 300, 310, 317, 323, 328, 332, 335, 337, 340, 341, 342, 342, 342]"
"100","100","655.875","655.875","black","no","block1","3","legacy","legacy","w.png","w.png","g.png","w.png","2","legacy","0","relative","1","undefined","NA","green","NA","undefined","1","undefined","undefined","green","2","0","3","0","34","0","NA","34","34","34","34","34","0","34","34","34","34","0","4","NA","NA","34","0","0","0","0","0","0","0","34","11/02/20 14:34:04","Default description","yes","simont_HV.osexp","C:\Users\admin\Desktop\채은\!MouseTracking_final","no","sans","no","18","no","black","no","yes","768","260","None","260","None","legacy","4","29","2","C:/Users/admin/Desktop/채은/!MouseTracking_final/subject-16.csv","legacy","1","2","1","Kafkaesque Koffka","3.2.6","0","green","space","NA","None","green","start","space","space","NA","NA","NA","619","75440","NA","250","619","374","27902","42515","NA","NA","NA","2","legacy","1024","2","48000","-16","experiment","16","even","legacy","red","green","blue","yellow","1","30333","NA","NA","249035","2425","NA","247660","248164","248416","247285","237642","2429","249054","250054","248164","248416","193561","NA","NA","NA","247285","236077","NA","NA","NA","NA","NA","105773","247284","[248165.0, 248175.0, 248185.0, 248195.0, 248205.0, 248215.0, 248225.0, 248235.0, 248245.0, 248255.0, 248265.0, 248275.0, 248285.0, 248295.0, 248305.0, 248315.0, 248325.0, 248335.0, 248345.0, 248355.0, 248365.0, 248375.0, 248385.0, 248395.0, 248405.0, 248415.0]","[248416.0, 248426.0, 248436.0, 248446.0, 248456.0, 248466.0, 248476.0, 248486.0, 248496.0, 248506.0, 248516.0, 248526.0, 248536.0, 248546.0, 248556.0, 248566.0, 248576.0, 248586.0, 248596.0, 248606.0, 248616.0, 248626.0, 248636.0, 248646.0, 248656.0, 248666.0, 248676.0, 248686.0, 248696.0, 248706.0, 248716.0, 248726.0, 248736.0, 248746.0, 248756.0, 248766.0, 248776.0, 248786.0, 248796.0, 248806.0, 248816.0, 248826.0, 248836.0, 248846.0, 248856.0, 248866.0, 248876.0, 248886.0, 248896.0, 248906.0, 248916.0, 248926.0, 248936.0, 248946.0, 248956.0, 248966.0, 248976.0, 248986.0, 248996.0, 249006.0, 249016.0, 249026.0, 249035]","example_experiment","32","20988","32","yes","768","1","[0, 0, 0, 0, 0, 0, 0, 0, 0, 0, 0, 0, 0, 0, 0, 0, 0, 0, 0, 0, 0, 0, 0, 0, 0, 0]","[0, 0, 0, 0, 0, 0, 0, 0, 0, 0, 0, 0, 0, 0, 0, 0, 0, 0, 0, 0, 0, 0, 0, 0, 0, 0, 0, 2, 7, 15, 30, 51, 75, 105, 138, 166, 199, 225, 251, 274, 290, 301, 307, 309, 309, 309, 309, 309, 308, 307, 306, 305, 303, 302, 301, 300, 300, 300, 300, 300, 300, 300, 300]","[0, 0, 0, 0, 0, 0, 0, 0, 0, 0, 0, 0, 0, 0, 0, 0, 0, 0, 0, 0, 0, 0, 0, 0, 0, 0]","[0, 0, 0, 0, 0, 0, 0, 0, 0, 0, 0, 0, 0, 0, 0, 0, 0, 0, 0, 0, 0, 0, 0, 0, 0, 0, 0, 0, -2, -3, -6, -8, -10, -13, -16, -17, -17, -17, -17, -17, -17, -17, -17, -17, -17, -17, -17, -17, -17, -17, -17, -17, -17, -17, -17, -16, -16, -16, -16, -16, -16, -16, -16]"
