"acc","accuracy","average_response_time","avg_rt","background","bidi","block","btwC","canvas_backend","clock_backend","colD","colL","colR","colU","color","color_backend","compensation","coordinates","correct","correct_answerins","correct_button_get_response_bef","correct_button_get_response_pos","correct_button_get_start_click","correct_get_response_bef","correct_get_response_pos","correct_get_start_click","correct_instructions","correct_resp","correctkey","count_answerins","count_break1","count_break3","count_correct_f","count_experiment","count_feedback","count_fixation500s","count_get_response_bef","count_get_response_pos","count_get_start_click","count_incorrect_f","count_instructions","count_iti1000","count_logger","count_present_stimulus","count_present_stimulus2","count_start_gogo","count_start_gogo_1","count_start_gogo_1_1","count_start_gogo_1_2","count_start_screen","count_stimuli1","count_stimuli2","count_stimuli3","count_stimuli4","count_stimuli5","count_stimuli6","count_stimuli_prac","count_trial","datetime","description","disable_garbage_collection","experiment_file","experiment_path","font_bold","font_family","font_italic","font_size","font_underline","foreground","form_clicks","fullscreen","height","initiation_time","initiation_time_get_response_bef","initiation_time_get_response_pos","initiation_time_get_start_click","keyboard_backend","live_row","live_row_stimuli_prac","loc","logfile","mouse_backend","n0","n1","n2","opensesame_codename","opensesame_version","repeat_cycle","response","response_answerins","response_feedback","response_get_response_bef","response_get_response_pos","response_get_start_click","response_instructions","response_start_gogo","response_start_gogo_1","response_start_gogo_1_1","response_start_gogo_1_2","response_time","response_time_answerins","response_time_feedback","response_time_get_response_bef","response_time_get_response_pos","response_time_get_start_click","response_time_instructions","response_time_start_gogo","response_time_start_gogo_1","response_time_start_gogo_1_1","response_time_start_gogo_1_2","round_decimals","sampler_backend","sound_buf_size","sound_channels","sound_freq","sound_sample_size","start","subject_nr","subject_parity","synth_backend","tar1L","tar2R","tar3U","tar4D","taskType","time_answerins","time_break1","time_break3","time_correct_f","time_experiment","time_feedback","time_fixation500s","time_get_response_bef","time_get_response_pos","time_get_start_click","time_incorrect_f","time_instructions","time_iti1000","time_logger","time_present_stimulus","time_present_stimulus2","time_start_gogo","time_start_gogo_1","time_start_gogo_1_1","time_start_gogo_1_2","time_start_screen","time_stimuli1","time_stimuli2","time_stimuli3","time_stimuli4","time_stimuli5","time_stimuli6","time_stimuli_prac","time_trial","timestamps_get_response_bef","timestamps_get_response_pos","title","total_correct","total_response_time","total_responses","uniform_coordinates","width","withC","xpos_get_response_bef","xpos_get_response_pos","ypos_get_response_bef","ypos_get_response_pos"
"100","100","796","796","black","no","prac","0","legacy","legacy","w.png","w.png","r.png","w.png","1","legacy","0","relative","1","undefined","NA","red","NA","undefined","1","undefined","undefined","red","1","0","3","0","0","0","NA","0","0","0","0","0","0","0","0","0","0","0","4","NA","NA","0","0","0","0","0","0","0","0","0","11/04/20 17:33:02","Default description","yes","simont_HV.osexp","C:\Users\admin\Desktop\채은\!MouseTracking_final","no","sans","no","18","no","black","no","yes","768","120","0","120","0","legacy","0","0","2","C:/Users/admin/Desktop/채은/!MouseTracking_final/subject-23.csv","legacy","2","0","0","Kafkaesque Koffka","3.2.6","0","red","space","NA","None","red","start","space","NA","NA","NA","NA","796","100227","NA","250","796","931","23277","NA","NA","NA","NA","2","legacy","1024","2","48000","-16","experiment","23","odd","legacy","red","green","blue","yellow","1","25662","NA","NA","128443","2380","NA","126891","127395","127647","125958","NA","2384","128452","129452","127395","127647","NA","NA","NA","NA","125958","NA","NA","NA","NA","NA","NA","125890","125956","[127396.0, 127406.0, 127416.0, 127426.0, 127436.0, 127446.0, 127456.0, 127466.0, 127476.0, 127486.0, 127496.0, 127506.0, 127516.0, 127526.0, 127536.0, 127546.0, 127556.0, 127566.0, 127576.0, 127586.0, 127596.0, 127606.0, 127616.0, 127626.0, 127636.0, 127646.0]","[127647.0, 127657.0, 127667.0, 127677.0, 127687.0, 127697.0, 127707.0, 127717.0, 127727.0, 127737.0, 127747.0, 127757.0, 127767.0, 127777.0, 127787.0, 127797.0, 127807.0, 127817.0, 127827.0, 127837.0, 127847.0, 127857.0, 127867.0, 127877.0, 127887.0, 127897.0, 127907.0, 127917.0, 127927.0, 127937.0, 127947.0, 127957.0, 127967.0, 127977.0, 127987.0, 127997.0, 128007.0, 128017.0, 128027.0, 128037.0, 128047.0, 128057.0, 128067.0, 128077.0, 128087.0, 128097.0, 128107.0, 128117.0, 128127.0, 128137.0, 128147.0, 128157.0, 128167.0, 128177.0, 128187.0, 128197.0, 128207.0, 128217.0, 128227.0, 128237.0, 128247.0, 128257.0, 128267.0, 128277.0, 128287.0, 128297.0, 128307.0, 128317.0, 128327.0, 128337.0, 128347.0, 128357.0, 128367.0, 128377.0, 128387.0, 128397.0, 128407.0, 128417.0, 128427.0, 128437.0, 128443]","example_experiment","1","796","1","yes","768","0","[0, 0, 0, 0, 0, 0, 0, 0, 0, -1, -1, -1, -1, -1, -1, -1, -1, -1, -1, -1, -1, -1, -1, -1, -1, -1]","[-1, -1, -1, -1, -1, -1, -1, -1, -1, -1, -1, -1, -1, -1, -2, -3, -4, -5, -5, -6, -9, -13, -19, -26, -33, -41, -48, -54, -60, -66, -72, -79, -89, -99, -109, -118, -125, -131, -135, -139, -141, -145, -150, -156, -164, -173, -183, -192, -199, -206, -211, -215, -218, -222, -226, -230, -235, -238, -241, -244, -246, -247, -248, -250, -253, -257, -263, -272, -284, -294, -303, -309, -312, -313, -313, -315, -315, -315, -315, -315, -315]","[0, 1, 2, 2, 3, 3, 4, 4, 4, 4, 4, 4, 4, 4, 4, 4, 4, 4, 4, 4, 4, 4, 4, 4, 4, 4]","[4, 4, 4, 4, 4, 4, 4, 4, 4, 4, 4, 4, 4, 5, 5, 5, 6, 7, 7, 8, 8, 8, 9, 9, 10, 10, 10, 10, 10, 10, 10, 11, 12, 12, 13, 13, 13, 13, 13, 13, 13, 13, 12, 11, 9, 8, 7, 6, 5, 5, 4, 4, 4, 4, 4, 4, 4, 4, 4, 4, 4, 4, 4, 4, 5, 6, 6, 8, 8, 11, 13, 14, 14, 14, 13, 12, 11, 10, 10, 10, 10]"
"100","100","796","796","black","no","prac","0","legacy","legacy","w.png","w.png","w.png","b.png","1","legacy","0","relative","undefined","undefined","NA","red","NA","undefined","1","undefined","undefined","blue","3","0","3","0","1","0","NA","1","1","1","1","1","0","1","1","1","1","0","4","NA","NA","1","0","0","0","0","0","0","0","1","11/04/20 17:33:02","Default description","yes","simont_HV.osexp","C:\Users\admin\Desktop\채은\!MouseTracking_final","no","sans","no","18","no","black","no","yes","768","360","0","120","360","legacy","1","1","1","C:/Users/admin/Desktop/채은/!MouseTracking_final/subject-23.csv","legacy","1","2","0","Kafkaesque Koffka","3.2.6","0","None","space","NA","None","red","None","space","NA","NA","NA","NA","1500","100227","NA","250","796","1500","23277","NA","NA","NA","NA","2","legacy","1024","2","48000","-16","experiment","23","odd","legacy","red","green","blue","yellow","2","25662","NA","NA","128443","2380","NA","126891","127395","127647","129566","131066","2384","131212","132212","127395","127647","NA","NA","NA","NA","129566","NA","NA","NA","NA","NA","NA","125890","129564","[127396.0, 127406.0, 127416.0, 127426.0, 127436.0, 127446.0, 127456.0, 127466.0, 127476.0, 127486.0, 127496.0, 127506.0, 127516.0, 127526.0, 127536.0, 127546.0, 127556.0, 127566.0, 127576.0, 127586.0, 127596.0, 127606.0, 127616.0, 127626.0, 127636.0, 127646.0]","[127647.0, 127657.0, 127667.0, 127677.0, 127687.0, 127697.0, 127707.0, 127717.0, 127727.0, 127737.0, 127747.0, 127757.0, 127767.0, 127777.0, 127787.0, 127797.0, 127807.0, 127817.0, 127827.0, 127837.0, 127847.0, 127857.0, 127867.0, 127877.0, 127887.0, 127897.0, 127907.0, 127917.0, 127927.0, 127937.0, 127947.0, 127957.0, 127967.0, 127977.0, 127987.0, 127997.0, 128007.0, 128017.0, 128027.0, 128037.0, 128047.0, 128057.0, 128067.0, 128077.0, 128087.0, 128097.0, 128107.0, 128117.0, 128127.0, 128137.0, 128147.0, 128157.0, 128167.0, 128177.0, 128187.0, 128197.0, 128207.0, 128217.0, 128227.0, 128237.0, 128247.0, 128257.0, 128267.0, 128277.0, 128287.0, 128297.0, 128307.0, 128317.0, 128327.0, 128337.0, 128347.0, 128357.0, 128367.0, 128377.0, 128387.0, 128397.0, 128407.0, 128417.0, 128427.0, 128437.0, 128443]","example_experiment","1","796","1","yes","768","0","[0, 0, 0, 0, 0, 0, 0, 0, 0, -1, -1, -1, -1, -1, -1, -1, -1, -1, -1, -1, -1, -1, -1, -1, -1, -1]","[-1, -1, -1, -1, -1, -1, -1, -1, -1, -1, -1, -1, -1, -1, -2, -3, -4, -5, -5, -6, -9, -13, -19, -26, -33, -41, -48, -54, -60, -66, -72, -79, -89, -99, -109, -118, -125, -131, -135, -139, -141, -145, -150, -156, -164, -173, -183, -192, -199, -206, -211, -215, -218, -222, -226, -230, -235, -238, -241, -244, -246, -247, -248, -250, -253, -257, -263, -272, -284, -294, -303, -309, -312, -313, -313, -315, -315, -315, -315, -315, -315]","[0, 1, 2, 2, 3, 3, 4, 4, 4, 4, 4, 4, 4, 4, 4, 4, 4, 4, 4, 4, 4, 4, 4, 4, 4, 4]","[4, 4, 4, 4, 4, 4, 4, 4, 4, 4, 4, 4, 4, 5, 5, 5, 6, 7, 7, 8, 8, 8, 9, 9, 10, 10, 10, 10, 10, 10, 10, 11, 12, 12, 13, 13, 13, 13, 13, 13, 13, 13, 12, 11, 9, 8, 7, 6, 5, 5, 4, 4, 4, 4, 4, 4, 4, 4, 4, 4, 4, 4, 4, 4, 5, 6, 6, 8, 8, 11, 13, 14, 14, 14, 13, 12, 11, 10, 10, 10, 10]"
"100","100","999.5","999.5","black","no","prac","2","legacy","legacy","w.png","g.png","w.png","w.png","2","legacy","0","relative","1","undefined","NA","green","NA","undefined","1","undefined","undefined","green","2","0","3","0","2","0","NA","2","2","2","2","2","0","2","2","2","2","0","4","NA","NA","2","0","0","0","0","0","0","0","2","11/04/20 17:33:02","Default description","yes","simont_HV.osexp","C:\Users\admin\Desktop\채은\!MouseTracking_final","no","sans","no","18","no","black","no","yes","768","170","0","170","30","legacy","2","2","1","C:/Users/admin/Desktop/채은/!MouseTracking_final/subject-23.csv","legacy","2","1","2","Kafkaesque Koffka","3.2.6","0","green","space","NA","None","green","start","space","NA","NA","NA","NA","1203","100227","NA","250","1203","748","23277","NA","NA","NA","NA","2","legacy","1024","2","48000","-16","experiment","23","odd","legacy","red","green","blue","yellow","1","25662","NA","NA","135049","2380","NA","133090","133594","133846","132340","131066","2384","135052","136052","133594","133846","NA","NA","NA","NA","132340","NA","NA","NA","NA","NA","NA","125890","132339","[133595.0, 133605.0, 133615.0, 133625.0, 133635.0, 133645.0, 133655.0, 133665.0, 133675.0, 133685.0, 133695.0, 133705.0, 133715.0, 133725.0, 133735.0, 133745.0, 133755.0, 133765.0, 133775.0, 133785.0, 133795.0, 133805.0, 133815.0, 133825.0, 133835.0, 133845.0]","[133846.0, 133856.0, 133866.0, 133876.0, 133886.0, 133896.0, 133906.0, 133916.0, 133926.0, 133936.0, 133946.0, 133956.0, 133966.0, 133976.0, 133986.0, 133996.0, 134006.0, 134016.0, 134026.0, 134036.0, 134046.0, 134056.0, 134066.0, 134076.0, 134086.0, 134096.0, 134106.0, 134116.0, 134126.0, 134136.0, 134146.0, 134156.0, 134166.0, 134176.0, 134186.0, 134196.0, 134206.0, 134216.0, 134226.0, 134236.0, 134246.0, 134256.0, 134266.0, 134276.0, 134286.0, 134296.0, 134306.0, 134316.0, 134326.0, 134336.0, 134346.0, 134356.0, 134366.0, 134376.0, 134386.0, 134396.0, 134406.0, 134416.0, 134426.0, 134436.0, 134446.0, 134456.0, 134466.0, 134476.0, 134486.0, 134496.0, 134506.0, 134516.0, 134526.0, 134536.0, 134546.0, 134556.0, 134566.0, 134576.0, 134586.0, 134596.0, 134606.0, 134616.0, 134626.0, 134636.0, 134646.0, 134656.0, 134666.0, 134676.0, 134676, 134686.0, 134696.0, 134706.0, 134716.0, 134726.0, 134736.0, 134746.0, 134756.0, 134766.0, 134776.0, 134786.0, 134796.0, 134806.0, 134816.0, 134826.0, 134836.0, 134846.0, 134856.0, 134866.0, 134876.0, 134886.0, 134896.0, 134906.0, 134916.0, 134926.0, 134936.0, 134946.0, 134956.0, 134966.0, 134976.0, 134986.0, 134996.0, 135006.0, 135016.0, 135026.0, 135036.0, 135046.0, 135049]","example_experiment","2","1999","2","yes","768","4","[0, 1, 2, 2, 3, 3, 3, 3, 3, 3, 3, 3, 3, 3, 3, 3, 3, 3, 3, 3, 3, 3, 3, 3, 3, 3]","[3, 3, 3, 3, 3, 3, 3, 3, 3, 3, 3, 3, 3, 3, 3, 3, 3, 3, 4, 4, 6, 6, 6, 6, 7, 9, 11, 14, 18, 22, 27, 33, 39, 46, 52, 59, 66, 73, 82, 91, 100, 108, 115, 119, 122, 126, 129, 134, 139, 144, 150, 157, 165, 170, 176, 180, 183, 184, 187, 190, 193, 198, 203, 210, 219, 226, 232, 238, 240, 243, 244, 245, 247, 251, 257, 263, 269, 274, 277, 278, 280, 281, 282, 283, 283, 283, 284, 284, 285, 285, 285, 285, 285, 285, 285, 285, 285, 285, 285, 285, 285, 285, 285, 285, 285, 285, 285, 285, 285, 285, 287, 290, 293, 297, 300, 302, 302, 302, 304, 306, 309, 310, 311]","[0, 2, 3, 3, 4, 5, 5, 6, 6, 6, 6, 6, 6, 6, 6, 6, 6, 6, 6, 6, 6, 6, 6, 6, 6, 6]","[6, 6, 6, 6, 6, 6, 6, 6, 6, 6, 6, 6, 6, 6, 6, 6, 6, 6, 6, 7, 7, 7, 7, 7, 7, 7, 7, 7, 8, 8, 8, 8, 9, 9, 9, 9, 9, 10, 10, 10, 10, 10, 8, 7, 4, 3, 0, -2, -4, -5, -6, -7, -7, -7, -7, -7, -7, -7, -7, -5, -3, 0, 2, 5, 6, 7, 8, 8, 8, 8, 8, 8, 7, 6, 6, 5, 4, 3, 2, 1, 0, 0, 0, 0, 0, 0, 0, 0, 0, 0, 0, 0, 0, 0, 0, 0, 0, 0, 0, 0, 0, 0, 0, 0, 0, 0, 0, 0, 0, 0, 0, 0, 0, 0, 0, 0, 0, 0, 0, 0, 1, 1, 2]"
"100","100","941","941","black","no","prac","3","legacy","legacy","w.png","w.png","w.png","b.png","1","legacy","0","relative","1","undefined","NA","blue","NA","undefined","1","undefined","undefined","blue","3","0","3","0","3","0","NA","3","3","3","3","3","0","3","3","3","3","0","4","NA","NA","3","0","0","0","0","0","0","0","3","11/04/20 17:33:02","Default description","yes","simont_HV.osexp","C:\Users\admin\Desktop\채은\!MouseTracking_final","no","sans","no","18","no","black","no","yes","768","130","0","130","190","legacy","3","3","1","C:/Users/admin/Desktop/채은/!MouseTracking_final/subject-23.csv","legacy","1","2","1","Kafkaesque Koffka","3.2.6","0","blue","space","NA","None","blue","start","space","NA","NA","NA","NA","824","100227","NA","250","824","726","23277","NA","NA","NA","NA","2","legacy","1024","2","48000","-16","experiment","23","odd","legacy","red","green","blue","yellow","2","25662","NA","NA","138469","2380","NA","136889","137393","137645","136161","131066","2384","138482","139482","137393","137645","NA","NA","NA","NA","136161","NA","NA","NA","NA","NA","NA","125890","136160","[137394.0, 137404.0, 137414.0, 137424.0, 137434.0, 137444.0, 137454.0, 137464.0, 137474.0, 137484.0, 137494.0, 137504.0, 137514.0, 137524.0, 137534.0, 137544.0, 137554.0, 137564.0, 137574.0, 137584.0, 137594.0, 137604.0, 137614.0, 137624.0, 137634.0, 137644.0]","[137645.0, 137655.0, 137665.0, 137675.0, 137685.0, 137695.0, 137705.0, 137715.0, 137725.0, 137735.0, 137745.0, 137755.0, 137765.0, 137775.0, 137785.0, 137795.0, 137805.0, 137815.0, 137825.0, 137835.0, 137845.0, 137855.0, 137865.0, 137875.0, 137885.0, 137895.0, 137905.0, 137915.0, 137925.0, 137935.0, 137945.0, 137955.0, 137965.0, 137975.0, 137985.0, 137995.0, 138005.0, 138015.0, 138025.0, 138035.0, 138045.0, 138055.0, 138065.0, 138075.0, 138085.0, 138095.0, 138105.0, 138115.0, 138125.0, 138135.0, 138145.0, 138155.0, 138165.0, 138175.0, 138185.0, 138195.0, 138205.0, 138215.0, 138225.0, 138235.0, 138245.0, 138255.0, 138265.0, 138275.0, 138285.0, 138295.0, 138305.0, 138315.0, 138325.0, 138335.0, 138345.0, 138355.0, 138365.0, 138375.0, 138385.0, 138395.0, 138405.0, 138415.0, 138425.0, 138435.0, 138445.0, 138455.0, 138465.0, 138469]","example_experiment","3","2823","3","yes","768","1","[0, 0, 0, 0, 0, 0, 0, 0, 0, 0, 0, 0, 0, 0, 0, 0, 0, 0, 0, 0, 0, 0, 0, 0, 0, 0]","[0, 0, 0, 0, 0, 0, 0, 0, 0, 0, 0, 0, 0, 0, 0, 2, 3, 5, 6, 8, 8, 8, 8, 8, 8, 7, 7, 7, 7, 7, 7, 7, 7, 7, 7, 8, 8, 8, 8, 8, 8, 8, 8, 8, 8, 9, 11, 11, 12, 12, 12, 12, 11, 9, 7, 6, 5, 4, 4, 3, 2, 2, 1, 1, 1, 1, 1, 1, 1, 1, 1, 1, 1, 1, 1, 1, 1, 1, 1, 1, 1, 1, 1, 1]","[0, 1, 1, 1, 2, 2, 2, 2, 2, 2, 2, 2, 2, 2, 2, 2, 2, 2, 2, 2, 2, 2, 2, 2, 2, 2]","[2, 2, 2, 2, 2, 2, 2, 2, 2, 2, 2, 2, 2, 2, 0, -5, -11, -20, -31, -41, -53, -63, -73, -80, -87, -93, -99, -105, -110, -117, -124, -129, -135, -140, -144, -149, -154, -162, -167, -171, -176, -181, -187, -191, -196, -201, -207, -213, -218, -223, -228, -232, -235, -240, -244, -247, -249, -251, -254, -257, -259, -261, -263, -264, -265, -266, -267, -268, -271, -272, -275, -278, -281, -285, -288, -292, -295, -297, -298, -299, -300, -300, -302, -302]"
"100","100","874.25","874.25","black","no","prac","1","legacy","legacy","w.png","w.png","g.png","w.png","2","legacy","0","relative","1","undefined","NA","green","NA","undefined","1","undefined","undefined","green","2","0","3","0","4","0","NA","4","4","4","4","4","0","4","4","4","4","0","4","NA","NA","4","0","0","0","0","0","0","0","4","11/04/20 17:33:02","Default description","yes","simont_HV.osexp","C:\Users\admin\Desktop\채은\!MouseTracking_final","no","sans","no","18","no","black","no","yes","768","90","0","90","280","legacy","4","4","2","C:/Users/admin/Desktop/채은/!MouseTracking_final/subject-23.csv","legacy","1","1","2","Kafkaesque Koffka","3.2.6","0","green","space","NA","None","green","start","space","NA","NA","NA","NA","674","100227","NA","250","674","617","23277","NA","NA","NA","NA","2","legacy","1024","2","48000","-16","experiment","23","odd","legacy","red","green","blue","yellow","1","25662","NA","NA","141654","2380","NA","140223","140727","140979","139604","131066","2384","141662","142662","140727","140979","NA","NA","NA","NA","139604","NA","NA","NA","NA","NA","NA","125890","139603","[140728.0, 140738.0, 140748.0, 140758.0, 140768.0, 140778.0, 140788.0, 140798.0, 140808.0, 140818.0, 140828.0, 140838.0, 140848.0, 140858.0, 140868.0, 140878.0, 140888.0, 140898.0, 140908.0, 140918.0, 140928.0, 140938.0, 140948.0, 140958.0, 140968.0, 140978.0]","[140979.0, 140989.0, 140999.0, 141009.0, 141019.0, 141029.0, 141039.0, 141049.0, 141059.0, 141069.0, 141079.0, 141089.0, 141099.0, 141109.0, 141119.0, 141129.0, 141139.0, 141149.0, 141159.0, 141169.0, 141179.0, 141189.0, 141199.0, 141209.0, 141219.0, 141229.0, 141239.0, 141249.0, 141259.0, 141269.0, 141279.0, 141289.0, 141299.0, 141309.0, 141319.0, 141329.0, 141339.0, 141349.0, 141359.0, 141369.0, 141379.0, 141389.0, 141399.0, 141409.0, 141419.0, 141429.0, 141439.0, 141449.0, 141459.0, 141469.0, 141479.0, 141489.0, 141499.0, 141509.0, 141519.0, 141529.0, 141539.0, 141549.0, 141559.0, 141569.0, 141579.0, 141589.0, 141599.0, 141609.0, 141619.0, 141629.0, 141639.0, 141649.0, 141653]","example_experiment","4","3497","4","yes","768","3","[0, 0, 0, 0, 0, 0, 0, 0, 0, 0, 0, 0, 0, 0, 0, 0, 0, 0, 0, 0, 0, 0, 0, 0, 0, 0]","[0, 0, 0, 0, 0, 0, 0, 0, 0, 0, 0, -1, -1, -1, -1, -1, -1, -1, 2, 10, 25, 41, 60, 79, 100, 120, 137, 152, 162, 168, 172, 175, 178, 181, 184, 187, 190, 193, 195, 199, 202, 207, 215, 224, 235, 245, 254, 260, 267, 274, 282, 290, 297, 303, 309, 312, 313, 313, 313, 313, 313, 313, 313, 313, 313, 314, 314, 314, 314]","[0, 3, 7, 10, 13, 15, 18, 20, 22, 23, 24, 25, 25, 25, 25, 25, 25, 25, 25, 25, 25, 25, 25, 25, 25, 25]","[25, 25, 25, 25, 25, 25, 25, 25, 25, 25, 26, 27, 28, 28, 28, 28, 29, 29, 29, 29, 29, 28, 26, 26, 26, 25, 24, 22, 22, 20, 20, 20, 19, 19, 18, 18, 18, 18, 18, 18, 18, 18, 18, 18, 18, 18, 18, 18, 18, 18, 18, 18, 18, 18, 17, 16, 16, 15, 14, 13, 13, 13, 13, 12, 11, 11, 10, 10, 10]"
"100","100","858","858","black","no","prac","1","legacy","legacy","y.png","w.png","w.png","w.png","2","legacy","0","relative","1","undefined","NA","yellow","NA","undefined","1","undefined","undefined","yellow","4","0","3","0","5","0","NA","5","5","5","5","5","0","5","5","5","5","0","4","NA","NA","5","0","0","0","0","0","0","0","5","11/04/20 17:33:02","Default description","yes","simont_HV.osexp","C:\Users\admin\Desktop\채은\!MouseTracking_final","no","sans","no","18","no","black","no","yes","768","0","None","0","None","legacy","5","5","2","C:/Users/admin/Desktop/채은/!MouseTracking_final/subject-23.csv","legacy","1","1","1","Kafkaesque Koffka","3.2.6","0","yellow","space","NA","None","yellow","start","space","NA","NA","NA","NA","793","100227","NA","250","793","257","23277","NA","NA","NA","NA","2","legacy","1024","2","48000","-16","experiment","23","odd","legacy","red","green","blue","yellow","2","25662","NA","NA","144592","2380","NA","143042","143546","143798","142783","131066","2384","144602","145602","143546","143798","NA","NA","NA","NA","142783","NA","NA","NA","NA","NA","NA","125890","142782","[143547.0, 143557.0, 143567.0, 143577.0, 143587.0, 143597.0, 143607.0, 143617.0, 143627.0, 143637.0, 143647.0, 143657.0, 143667.0, 143677.0, 143687.0, 143697.0, 143707.0, 143717.0, 143727.0, 143737.0, 143747.0, 143757.0, 143767.0, 143777.0, 143787.0, 143797.0]","[143798.0, 143808.0, 143818.0, 143828.0, 143838.0, 143848.0, 143858.0, 143868.0, 143878.0, 143888.0, 143898.0, 143908.0, 143918.0, 143928.0, 143938.0, 143948.0, 143958.0, 143968.0, 143978.0, 143988.0, 143998.0, 144008.0, 144018.0, 144028.0, 144038.0, 144048.0, 144058.0, 144068.0, 144078.0, 144088.0, 144098.0, 144108.0, 144118.0, 144128.0, 144138.0, 144148.0, 144158.0, 144168.0, 144178.0, 144188.0, 144198.0, 144208.0, 144218.0, 144228.0, 144238.0, 144248.0, 144258.0, 144268.0, 144278.0, 144288.0, 144298.0, 144308.0, 144318.0, 144328.0, 144338.0, 144348.0, 144358.0, 144368.0, 144378.0, 144388.0, 144398.0, 144408.0, 144418.0, 144428.0, 144438.0, 144448.0, 144458.0, 144468.0, 144478.0, 144488.0, 144498.0, 144508.0, 144518.0, 144528.0, 144538.0, 144548.0, 144558.0, 144568.0, 144578.0, 144588.0, 144591]","example_experiment","5","4290","5","yes","768","1","[0, 0, 0, 0, 0, 0, 0, 0, 0, 0, 0, 0, 0, 0, 0, 0, 0, 0, 0, 0, 0, 0, 0, 0, 0, 0]","[0, 0, 0, 0, 1, 1, 1, 1, 1, 1, 1, 1, 1, 1, 0, -1, -3, -5, -8, -11, -13, -14, -15, -14, -11, -7, -4, 0, 3, 6, 7, 8, 8, 8, 8, 9, 10, 12, 14, 17, 18, 20, 20, 20, 20, 20, 18, 17, 16, 16, 15, 15, 14, 11, 9, 7, 4, 2, 0, -2, -3, -3, -3, -1, 2, 5, 7, 9, 11, 11, 12, 12, 12, 12, 12, 12, 12, 12, 12, 12, 12]","[0, 0, 0, 0, 0, 0, 0, 0, 0, 0, 0, 0, 0, 0, 0, 0, 0, 0, 0, 0, 0, 0, 0, 0, 0, 0]","[1, 2, 3, 4, 5, 5, 5, 5, 5, 5, 5, 5, 6, 6, 8, 9, 11, 14, 19, 27, 36, 51, 67, 84, 101, 114, 123, 129, 133, 136, 138, 139, 139, 139, 140, 143, 147, 152, 158, 165, 171, 178, 184, 189, 193, 197, 200, 203, 204, 204, 204, 204, 205, 207, 209, 213, 217, 222, 228, 235, 243, 251, 261, 270, 276, 283, 287, 290, 293, 294, 295, 295, 295, 295, 295, 295, 295, 295, 295, 295, 295]"
"100","100","797.166666667","797.166666667","black","no","prac","2","legacy","legacy","w.png","w.png","r.png","w.png","1","legacy","0","relative","1","undefined","NA","red","NA","undefined","1","undefined","undefined","red","1","0","3","0","6","0","NA","6","6","6","6","6","0","6","6","6","6","0","4","NA","NA","6","0","0","0","0","0","0","0","6","11/04/20 17:33:02","Default description","yes","simont_HV.osexp","C:\Users\admin\Desktop\채은\!MouseTracking_final","no","sans","no","18","no","black","no","yes","768","80","None","80","0","legacy","6","6","2","C:/Users/admin/Desktop/채은/!MouseTracking_final/subject-23.csv","legacy","2","1","1","Kafkaesque Koffka","3.2.6","0","red","space","NA","None","red","start","space","NA","NA","NA","NA","493","100227","NA","250","493","609","23277","NA","NA","NA","NA","2","legacy","1024","2","48000","-16","experiment","23","odd","legacy","red","green","blue","yellow","1","25662","NA","NA","147584","2380","NA","146334","146838","147090","145723","131066","2384","147592","148592","146838","147090","NA","NA","NA","NA","145723","NA","NA","NA","NA","NA","NA","125890","145722","[146839.0, 146849.0, 146859.0, 146869.0, 146879.0, 146889.0, 146899.0, 146909.0, 146919.0, 146929.0, 146939.0, 146949.0, 146959.0, 146969.0, 146979.0, 146989.0, 146999.0, 147009.0, 147019.0, 147029.0, 147039.0, 147049.0, 147059.0, 147069.0, 147079.0, 147089.0]","[147090.0, 147100.0, 147110.0, 147120.0, 147130.0, 147140.0, 147150.0, 147160.0, 147170.0, 147180.0, 147190.0, 147200.0, 147210.0, 147220.0, 147230.0, 147240.0, 147250.0, 147260.0, 147270.0, 147280.0, 147290.0, 147300.0, 147310.0, 147320.0, 147330.0, 147340.0, 147350.0, 147360.0, 147370.0, 147380.0, 147390.0, 147400.0, 147410.0, 147420.0, 147430.0, 147440.0, 147450.0, 147460.0, 147470.0, 147480.0, 147490.0, 147500.0, 147510.0, 147520.0, 147530.0, 147540.0, 147550.0, 147560.0, 147570.0, 147580.0, 147583]","example_experiment","6","4783","6","yes","768","2","[0, 0, 0, 0, 0, 0, 0, 0, 0, 0, 0, 0, 0, 0, 0, 0, 0, 0, 0, 0, 0, 0, 0, 0, 0, 0]","[0, 0, 0, 0, 0, 0, 0, 0, 0, -2, -6, -11, -18, -31, -46, -65, -87, -105, -121, -137, -150, -161, -169, -175, -179, -181, -182, -183, -185, -189, -193, -199, -209, -221, -235, -251, -265, -276, -284, -288, -290, -290, -291, -291, -291, -291, -291, -291, -291, -291, -291]","[0, 0, 0, 0, 0, 0, 0, 0, 0, 0, 0, 0, 0, 0, 0, 0, 0, 0, 0, 0, 0, 0, 0, 0, 0, 0]","[0, 0, 0, 0, 0, 0, 0, 0, 0, 1, 3, 4, 7, 9, 12, 15, 18, 19, 21, 23, 24, 24, 24, 24, 24, 24, 24, 24, 24, 24, 22, 21, 17, 14, 10, 7, 5, 3, 2, 0, 0, -1, -1, -1, -2, -2, -2, -2, -2, -2, -2]"
"100","100","790.428571429","790.428571429","black","no","prac","4","legacy","legacy","w.png","w.png","w.png","y.png","2","legacy","0","relative","1","undefined","NA","yellow","NA","undefined","1","undefined","undefined","yellow","4","0","3","0","7","0","NA","7","7","7","7","7","0","7","7","7","7","0","4","NA","NA","7","0","0","0","0","0","0","0","7","11/04/20 17:33:02","Default description","yes","simont_HV.osexp","C:\Users\admin\Desktop\채은\!MouseTracking_final","no","sans","no","18","no","black","no","yes","768","220","None","220","110","legacy","7","7","1","C:/Users/admin/Desktop/채은/!MouseTracking_final/subject-23.csv","legacy","2","2","1","Kafkaesque Koffka","3.2.6","0","yellow","space","NA","None","yellow","start","space","NA","NA","NA","NA","750","100227","NA","250","750","330","23277","NA","NA","NA","NA","2","legacy","1024","2","48000","-16","experiment","23","odd","legacy","red","green","blue","yellow","2","25662","NA","NA","150538","2380","NA","149031","149535","149787","148699","131066","2384","150552","151552","149535","149787","NA","NA","NA","NA","148699","NA","NA","NA","NA","NA","NA","125890","148698","[149536.0, 149546.0, 149556.0, 149566.0, 149576.0, 149586.0, 149596.0, 149606.0, 149616.0, 149626.0, 149636.0, 149646.0, 149656.0, 149666.0, 149676.0, 149686.0, 149696.0, 149706.0, 149716.0, 149726.0, 149736.0, 149746.0, 149756.0, 149766.0, 149776.0, 149786.0]","[149787.0, 149797.0, 149807.0, 149817.0, 149827.0, 149837.0, 149847.0, 149857.0, 149867.0, 149877.0, 149887.0, 149897.0, 149907.0, 149917.0, 149927.0, 149937.0, 149947.0, 149957.0, 149967.0, 149977.0, 149987.0, 149997.0, 150007.0, 150017.0, 150027.0, 150037.0, 150047.0, 150057.0, 150067.0, 150077.0, 150087.0, 150097.0, 150107.0, 150117.0, 150127.0, 150137.0, 150147.0, 150157.0, 150167.0, 150177.0, 150187.0, 150197.0, 150207.0, 150217.0, 150227.0, 150237.0, 150247.0, 150257.0, 150267.0, 150277.0, 150287.0, 150297.0, 150307.0, 150317.0, 150327.0, 150337.0, 150347.0, 150357.0, 150367.0, 150377.0, 150387.0, 150397.0, 150407.0, 150417.0, 150427.0, 150437.0, 150447.0, 150457.0, 150467.0, 150477.0, 150487.0, 150497.0, 150507.0, 150517.0, 150527.0, 150537.0, 150537]","example_experiment","7","5533","7","yes","768","2","[0, 0, 0, 0, 0, 0, 0, 0, 0, 0, 0, 0, 0, 0, 0, 0, 0, 0, 0, 0, 0, 0, 0, 0, 0, 0]","[0, 0, 0, 0, 0, 0, 0, 0, 0, 0, 0, 0, 0, 0, 0, 0, 0, 0, 0, 0, 0, 0, 0, 1, 1, 2, 4, 6, 9, 11, 12, 12, 12, 10, 8, 6, 4, 3, 3, 4, 7, 9, 11, 11, 11, 11, 11, 11, 12, 12, 14, 16, 18, 20, 21, 21, 21, 21, 20, 19, 16, 15, 14, 13, 13, 13, 13, 13, 12, 12, 11, 11, 11, 11, 11, 11, 11]","[0, 0, 0, 0, 0, 0, 0, 0, 0, 0, 0, 0, 0, 0, 0, 0, 0, 0, 0, 0, 0, 0, 0, 0, 0, 0]","[0, 0, 0, 0, 0, 0, 0, 0, 0, 0, 0, 0, 0, 0, 0, 0, 0, 0, 0, 0, 0, 0, 0, 0, 0, 0, 0, 0, 4, 9, 17, 28, 45, 63, 87, 114, 140, 158, 172, 181, 186, 189, 191, 192, 193, 194, 194, 194, 195, 197, 201, 207, 212, 217, 221, 223, 226, 229, 233, 239, 248, 257, 266, 273, 277, 280, 282, 284, 286, 287, 288, 289, 289, 290, 290, 290, 290]"
"100","100","765.25","765.25","black","no","prac","3","legacy","legacy","w.png","r.png","w.png","w.png","1","legacy","0","relative","1","undefined","NA","red","NA","undefined","1","undefined","undefined","red","1","0","3","0","8","0","NA","8","8","8","8","8","0","8","8","8","8","0","4","NA","NA","8","0","0","0","0","0","0","0","8","11/04/20 17:33:02","Default description","yes","simont_HV.osexp","C:\Users\admin\Desktop\채은\!MouseTracking_final","no","sans","no","18","no","black","no","yes","768","90","60","90","41","legacy","8","8","1","C:/Users/admin/Desktop/채은/!MouseTracking_final/subject-23.csv","legacy","1","2","2","Kafkaesque Koffka","3.2.6","0","red","space","NA","None","red","start","space","NA","NA","NA","NA","589","100227","NA","250","589","319","23277","NA","NA","NA","NA","2","legacy","1024","2","48000","-16","experiment","23","odd","legacy","red","green","blue","yellow","1","25662","NA","NA","153334","2380","NA","151988","152492","152744","151667","131066","2384","153352","154352","152492","152744","NA","NA","NA","NA","151667","NA","NA","NA","NA","NA","NA","125890","151666","[152493.0, 152503.0, 152513.0, 152523.0, 152533.0, 152543.0, 152553.0, 152563.0, 152573.0, 152583.0, 152593.0, 152603.0, 152613.0, 152623.0, 152633.0, 152643.0, 152653.0, 152663.0, 152673.0, 152683.0, 152693.0, 152703.0, 152713.0, 152723.0, 152733.0, 152743.0]","[152744.0, 152754.0, 152764.0, 152774.0, 152784.0, 152794.0, 152804.0, 152814.0, 152824.0, 152834.0, 152844.0, 152854.0, 152864.0, 152874.0, 152884.0, 152894.0, 152904.0, 152914.0, 152924.0, 152934.0, 152944.0, 152954.0, 152964.0, 152974.0, 152984.0, 152994.0, 153004.0, 153014.0, 153024.0, 153034.0, 153044.0, 153054.0, 153064.0, 153074.0, 153084.0, 153094.0, 153104.0, 153114.0, 153124.0, 153134.0, 153144.0, 153154.0, 153164.0, 153174.0, 153184.0, 153194.0, 153204.0, 153214.0, 153224.0, 153234.0, 153244.0, 153254.0, 153264.0, 153274.0, 153284.0, 153294.0, 153304.0, 153314.0, 153324.0, 153333]","example_experiment","8","6122","8","yes","768","3","[0, 0, 0, 0, 0, 0, 0, 1, 2, 2, 3, 4, 4, 4, 4, 4, 4, 4, 4, 4, 4, 4, 4, 4, 4, 4]","[4, 4, 4, 4, 4, 4, 4, 4, 4, 4, 2, -1, -7, -14, -24, -38, -54, -73, -89, -101, -111, -118, -124, -129, -132, -136, -142, -148, -157, -166, -176, -185, -194, -202, -211, -218, -224, -231, -235, -240, -244, -249, -254, -260, -265, -270, -274, -277, -278, -278, -278, -279, -280, -282, -285, -289, -293, -295, -295, -295]","[0, 0, 0, 0, 0, 0, 0, 0, 0, 1, 1, 1, 1, 2, 2, 2, 2, 2, 2, 2, 2, 2, 2, 2, 2, 2]","[2, 2, 2, 2, 2, 2, 2, 2, 2, 2, 3, 3, 4, 4, 4, 4, 4, 4, 4, 4, 4, 4, 4, 4, 4, 4, 4, 4, 4, 4, 4, 4, 4, 3, 3, 3, 3, 3, 2, 2, 2, 2, 2, 1, 1, 1, 1, 1, 1, 1, 1, 1, 1, 1, 1, 1, 1, 2, 2, 2]"
"100","100","741.222222222","741.222222222","black","no","prac","1","legacy","legacy","y.png","w.png","w.png","w.png","2","legacy","0","relative","1","undefined","NA","yellow","NA","undefined","1","undefined","undefined","yellow","4","0","3","0","9","0","NA","9","9","9","9","9","0","9","9","9","9","0","4","NA","NA","9","0","0","0","0","0","0","0","9","11/04/20 17:33:02","Default description","yes","simont_HV.osexp","C:\Users\admin\Desktop\채은\!MouseTracking_final","no","sans","no","18","no","black","no","yes","768","20","None","20","None","legacy","9","9","2","C:/Users/admin/Desktop/채은/!MouseTracking_final/subject-23.csv","legacy","1","1","2","Kafkaesque Koffka","3.2.6","0","yellow","space","NA","None","yellow","start","space","NA","NA","NA","NA","549","100227","NA","250","549","220","23277","NA","NA","NA","NA","2","legacy","1024","2","48000","-16","experiment","23","odd","legacy","red","green","blue","yellow","2","25662","NA","NA","156016","2380","NA","154710","155214","155466","154488","131066","2384","156022","157022","155214","155466","NA","NA","NA","NA","154488","NA","NA","NA","NA","NA","NA","125890","154486","[155215.0, 155225.0, 155235.0, 155245.0, 155255.0, 155265.0, 155275.0, 155285.0, 155295.0, 155305.0, 155315.0, 155325.0, 155335.0, 155345.0, 155355.0, 155365.0, 155375.0, 155385.0, 155395.0, 155405.0, 155415.0, 155425.0, 155435.0, 155445.0, 155455.0, 155465.0]","[155466.0, 155476.0, 155486.0, 155496.0, 155506.0, 155516.0, 155526.0, 155536.0, 155546.0, 155556.0, 155566.0, 155576.0, 155586.0, 155596.0, 155606.0, 155616.0, 155626.0, 155636.0, 155646.0, 155656.0, 155666.0, 155676.0, 155686.0, 155696.0, 155706.0, 155716.0, 155726.0, 155736.0, 155746.0, 155756.0, 155766.0, 155776.0, 155786.0, 155796.0, 155806.0, 155816.0, 155826.0, 155836.0, 155846.0, 155856.0, 155866.0, 155876.0, 155886.0, 155896.0, 155906.0, 155916.0, 155926.0, 155936.0, 155946.0, 155956.0, 155966.0, 155976.0, 155986.0, 155996.0, 156006.0, 156015]","example_experiment","9","6671","9","yes","768","3","[0, 0, 0, 0, 0, 0, 0, 0, 0, 0, 0, 0, 0, 0, 0, 0, 0, 0, 0, 0, 0, 0, 0, 0, 0, 0]","[0, 0, 0, 0, 0, 0, 0, -1, -1, -2, -3, -3, -4, -5, -6, -8, -12, -15, -18, -20, -20, -17, -13, -9, -5, -1, 2, 5, 6, 8, 9, 10, 10, 10, 10, 10, 10, 10, 10, 10, 10, 10, 8, 7, 6, 5, 4, 4, 4, 4, 4, 4, 5, 5, 5, 5]","[0, 0, 0, 0, 0, 0, 0, 0, 0, 0, 0, 0, 0, 0, 0, 0, 0, 0, 0, 0, 0, 0, 0, 0, 0, 0]","[0, 0, 0, 2, 3, 5, 6, 7, 9, 12, 19, 29, 44, 60, 79, 98, 115, 131, 143, 156, 170, 186, 198, 208, 215, 220, 225, 229, 232, 236, 239, 242, 243, 244, 246, 249, 253, 257, 260, 264, 267, 271, 274, 278, 282, 285, 289, 295, 298, 301, 303, 304, 306, 307, 307, 307]"
"100","100","726","726","black","no","prac","1","legacy","legacy","w.png","w.png","g.png","w.png","2","legacy","0","relative","1","undefined","NA","green","NA","undefined","1","undefined","undefined","green","2","0","3","0","10","0","NA","10","10","10","10","10","0","10","10","10","10","0","4","NA","NA","10","0","0","0","0","0","0","0","10","11/04/20 17:33:02","Default description","yes","simont_HV.osexp","C:\Users\admin\Desktop\채은\!MouseTracking_final","no","sans","no","18","no","black","no","yes","768","30","None","30","0","legacy","10","10","2","C:/Users/admin/Desktop/채은/!MouseTracking_final/subject-23.csv","legacy","1","1","1","Kafkaesque Koffka","3.2.6","0","green","space","NA","None","green","start","space","NA","NA","NA","NA","589","100227","NA","250","589","286","23277","NA","NA","NA","NA","2","legacy","1024","2","48000","-16","experiment","23","odd","legacy","red","green","blue","yellow","1","25662","NA","NA","158772","2380","NA","157426","157930","158182","157138","131066","2384","158792","159792","157930","158182","NA","NA","NA","NA","157138","NA","NA","NA","NA","NA","NA","125890","157137","[157931.0, 157941.0, 157951.0, 157961.0, 157971.0, 157981.0, 157991.0, 158001.0, 158011.0, 158021.0, 158031.0, 158041.0, 158051.0, 158061.0, 158071.0, 158081.0, 158091.0, 158101.0, 158111.0, 158121.0, 158131.0, 158141.0, 158151.0, 158161.0, 158171.0, 158181.0]","[158182.0, 158192.0, 158202.0, 158212.0, 158222.0, 158232.0, 158242.0, 158252.0, 158262.0, 158272.0, 158282.0, 158292.0, 158302.0, 158312.0, 158322.0, 158332.0, 158342.0, 158352.0, 158362.0, 158372.0, 158382.0, 158392.0, 158402.0, 158412.0, 158422.0, 158432.0, 158442.0, 158452.0, 158462.0, 158472.0, 158482.0, 158492.0, 158502.0, 158512.0, 158522.0, 158532.0, 158542.0, 158552.0, 158562.0, 158572.0, 158582.0, 158592.0, 158602.0, 158612.0, 158622.0, 158632.0, 158642.0, 158652.0, 158662.0, 158672.0, 158682.0, 158692.0, 158702.0, 158712.0, 158722.0, 158732.0, 158742.0, 158752.0, 158762.0, 158771]","example_experiment","10","7260","10","yes","768","1","[0, 0, 0, 0, 0, 0, 0, 0, 0, 0, 0, 0, 0, 0, 0, 0, 0, 0, 0, 0, 0, 0, 0, 0, 0, 0]","[0, 0, 0, 0, 3, 9, 17, 28, 40, 54, 71, 85, 99, 111, 123, 133, 141, 149, 157, 164, 172, 180, 189, 198, 207, 215, 222, 227, 230, 232, 234, 236, 239, 244, 251, 260, 270, 280, 288, 294, 295, 295, 295, 295, 295, 295, 296, 297, 298, 299, 299, 299, 299, 299, 299, 299, 299, 299, 299, 299]","[0, 0, 0, 0, 0, 0, 0, 0, 0, 0, 0, 0, 0, 0, 0, 0, 0, 0, 0, 0, 0, 0, 0, 0, 0, 0]","[0, 0, 0, 0, 0, 0, 0, 0, 0, 0, 0, 0, 0, 0, 1, 1, 1, 1, 1, 1, 1, 1, 1, 1, 1, 0, 0, -1, -2, -3, -3, -3, -4, -4, -4, -4, -4, -4, -4, -4, -4, -4, -4, -4, -4, -4, -4, -4, -4, -4, -4, -4, -4, -4, -4, -4, -4, -4, -4, -4]"
"100","100","732.363636364","732.363636364","black","no","prac","1","legacy","legacy","w.png","w.png","w.png","b.png","1","legacy","0","relative","1","undefined","NA","blue","NA","undefined","1","undefined","undefined","blue","3","0","3","0","11","0","NA","11","11","11","11","11","0","11","11","11","11","0","4","NA","NA","11","0","0","0","0","0","0","0","11","11/04/20 17:33:02","Default description","yes","simont_HV.osexp","C:\Users\admin\Desktop\채은\!MouseTracking_final","no","sans","no","18","no","black","no","yes","768","90","None","90","None","legacy","11","11","1","C:/Users/admin/Desktop/채은/!MouseTracking_final/subject-23.csv","legacy","1","1","1","Kafkaesque Koffka","3.2.6","0","blue","space","NA","None","blue","start","space","NA","NA","NA","NA","796","100227","NA","250","796","271","23277","NA","NA","NA","NA","2","legacy","1024","2","48000","-16","experiment","23","odd","legacy","red","green","blue","yellow","2","25662","NA","NA","161738","2380","NA","160185","160689","160941","159912","131066","2384","161752","162752","160689","160941","NA","NA","NA","NA","159912","NA","NA","NA","NA","NA","NA","125890","159910","[160690.0, 160700.0, 160710.0, 160720.0, 160730.0, 160740.0, 160750.0, 160760.0, 160770.0, 160780.0, 160790.0, 160800.0, 160810.0, 160820.0, 160830.0, 160840.0, 160850.0, 160860.0, 160870.0, 160880.0, 160890.0, 160900.0, 160910.0, 160920.0, 160930.0, 160940.0]","[160941.0, 160951.0, 160961.0, 160971.0, 160981.0, 160991.0, 161001.0, 161011.0, 161021.0, 161031.0, 161041.0, 161051.0, 161061.0, 161071.0, 161081.0, 161091.0, 161101.0, 161111.0, 161121.0, 161131.0, 161141.0, 161151.0, 161161.0, 161171.0, 161181.0, 161191.0, 161201.0, 161211.0, 161221.0, 161231.0, 161241.0, 161251.0, 161261.0, 161271.0, 161281.0, 161291.0, 161301.0, 161311.0, 161321.0, 161331.0, 161341.0, 161351.0, 161361.0, 161371.0, 161381.0, 161391.0, 161401.0, 161411.0, 161421.0, 161431.0, 161441.0, 161451.0, 161461.0, 161471.0, 161481.0, 161491.0, 161501.0, 161511.0, 161521.0, 161531.0, 161541.0, 161551.0, 161561.0, 161571.0, 161581.0, 161591.0, 161601.0, 161611.0, 161621.0, 161631.0, 161641.0, 161651.0, 161661.0, 161671.0, 161681.0, 161691.0, 161701.0, 161711.0, 161721.0, 161731.0, 161737]","example_experiment","11","8056","11","yes","768","1","[0, 0, 0, 0, 0, 0, 0, 0, 0, 0, 0, 0, 0, 0, 0, 0, 0, 0, 0, 0, 0, 0, 0, 0, 0, 0]","[0, 0, 0, 0, 0, 0, 0, 0, 0, 0, 0, -2, -4, -7, -10, -14, -17, -20, -21, -22, -22, -21, -21, -20, -20, -20, -20, -20, -20, -20, -20, -19, -17, -15, -14, -13, -13, -12, -12, -12, -12, -12, -13, -13, -13, -13, -13, -12, -12, -11, -9, -9, -8, -8, -8, -8, -8, -7, -7, -7, -7, -7, -7, -7, -7, -7, -7, -7, -7, -7, -6, -6, -5, -5, -5, -5, -5, -5, -5, -5, -5]","[0, 0, 0, 0, 0, 0, 0, 0, 0, 0, 0, 0, 0, 0, 0, 0, 0, 0, 0, 0, 0, 0, 0, 0, 0, 0]","[0, 0, 0, 0, 0, 0, 0, 0, 0, 0, -1, -5, -10, -16, -20, -24, -29, -34, -39, -45, -55, -64, -76, -96, -115, -137, -153, -167, -180, -192, -200, -207, -213, -217, -221, -224, -225, -225, -225, -227, -230, -232, -234, -237, -238, -241, -243, -246, -250, -255, -259, -263, -266, -269, -271, -274, -276, -278, -281, -283, -285, -287, -288, -288, -288, -288, -288, -288, -288, -288, -288, -289, -290, -290, -290, -290, -290, -290, -290, -290, -290]"
"100","100","733.083333333","733.083333333","black","no","prac","1","legacy","legacy","w.png","r.png","w.png","w.png","1","legacy","0","relative","1","undefined","NA","red","NA","undefined","1","undefined","undefined","red","1","0","3","0","12","0","NA","12","12","12","12","12","0","12","12","12","12","0","4","NA","NA","12","0","0","0","0","0","0","0","12","11/04/20 17:33:02","Default description","yes","simont_HV.osexp","C:\Users\admin\Desktop\채은\!MouseTracking_final","no","sans","no","18","no","black","no","yes","768","0","None","0","151","legacy","12","12","1","C:/Users/admin/Desktop/채은/!MouseTracking_final/subject-23.csv","legacy","1","1","1","Kafkaesque Koffka","3.2.6","0","red","space","NA","None","red","start","space","NA","NA","NA","NA","741","100227","NA","250","741","597","23277","NA","NA","NA","NA","2","legacy","1024","2","48000","-16","experiment","23","odd","legacy","red","green","blue","yellow","1","25662","NA","NA","164956","2380","NA","163458","163962","164214","162859","131066","2384","164982","165982","163962","164214","NA","NA","NA","NA","162859","NA","NA","NA","NA","NA","NA","125890","162858","[163963.0, 163973.0, 163983.0, 163993.0, 164003.0, 164013.0, 164023.0, 164033.0, 164043.0, 164053.0, 164063.0, 164073.0, 164083.0, 164093.0, 164103.0, 164113.0, 164123.0, 164133.0, 164143.0, 164153.0, 164163.0, 164173.0, 164183.0, 164193.0, 164203.0, 164213.0]","[164214.0, 164224.0, 164234.0, 164244.0, 164254.0, 164264.0, 164274.0, 164284.0, 164294.0, 164304.0, 164314.0, 164324.0, 164334.0, 164344.0, 164354.0, 164364.0, 164374.0, 164384.0, 164394.0, 164404.0, 164414.0, 164424.0, 164434.0, 164444.0, 164454.0, 164464.0, 164474.0, 164484.0, 164494.0, 164504.0, 164514.0, 164524.0, 164534.0, 164544.0, 164554.0, 164564.0, 164574.0, 164584.0, 164594.0, 164604.0, 164614.0, 164624.0, 164634.0, 164644.0, 164654.0, 164664.0, 164674.0, 164684.0, 164694.0, 164704.0, 164714.0, 164724.0, 164734.0, 164744.0, 164754.0, 164764.0, 164774.0, 164784.0, 164794.0, 164804.0, 164814.0, 164824.0, 164834.0, 164844.0, 164854.0, 164864.0, 164874.0, 164884.0, 164894.0, 164904.0, 164914.0, 164924.0, 164934.0, 164944.0, 164954.0, 164955]","example_experiment","12","8797","12","yes","768","1","[0, 0, 0, 0, 0, 0, 0, 0, 0, 0, 0, 0, 0, 0, 0, 0, 0, 0, 0, 0, 0, 0, 0, 0, 0, 0]","[0, -1, -2, -6, -14, -24, -36, -50, -70, -93, -117, -141, -164, -189, -208, -224, -236, -243, -249, -252, -254, -254, -254, -254, -255, -256, -257, -258, -260, -261, -263, -264, -265, -266, -267, -270, -273, -276, -280, -284, -288, -292, -296, -299, -302, -306, -309, -312, -315, -317, -318, -319, -319, -319, -319, -319, -319, -319, -319, -319, -319, -319, -319, -319, -319, -319, -319, -319, -319, -319, -319, -319, -319, -319, -319, -319]","[0, 0, 0, 0, 0, 0, 0, 0, 0, 0, 0, 0, 0, 0, 0, 0, 0, 0, 0, 0, 0, 0, 0, 0, 0, 0]","[0, 0, 0, 1, 2, 3, 5, 7, 9, 13, 17, 21, 22, 23, 23, 23, 23, 23, 23, 23, 23, 23, 23, 23, 22, 20, 19, 17, 15, 11, 8, 6, 4, 1, -1, -3, -5, -7, -8, -9, -9, -9, -9, -9, -9, -9, -8, -7, -6, -6, -5, -4, -4, -4, -4, -4, -4, -4, -4, -4, -4, -4, -4, -4, -4, -4, -4, -4, -4, -4, -4, -4, -4, -4, -4, -4]"
"100","100","735.384615385","735.384615385","black","no","prac","2","legacy","legacy","w.png","w.png","w.png","y.png","2","legacy","0","relative","1","undefined","NA","yellow","NA","undefined","1","undefined","undefined","yellow","4","0","3","0","13","0","NA","13","13","13","13","13","0","13","13","13","13","0","4","NA","NA","13","0","0","0","0","0","0","0","13","11/04/20 17:33:02","Default description","yes","simont_HV.osexp","C:\Users\admin\Desktop\채은\!MouseTracking_final","no","sans","no","18","no","black","no","yes","768","50","None","50","None","legacy","13","13","1","C:/Users/admin/Desktop/채은/!MouseTracking_final/subject-23.csv","legacy","2","1","1","Kafkaesque Koffka","3.2.6","0","yellow","space","NA","None","yellow","start","space","NA","NA","NA","NA","763","100227","NA","250","763","372","23277","NA","NA","NA","NA","2","legacy","1024","2","48000","-16","experiment","23","odd","legacy","red","green","blue","yellow","2","25662","NA","NA","168005","2380","NA","166484","166989","167241","166111","131066","2384","168012","169012","166989","167241","NA","NA","NA","NA","166111","NA","NA","NA","NA","NA","NA","125890","166110","[166990.0, 167000.0, 167010.0, 167020.0, 167030.0, 167040.0, 167050.0, 167060.0, 167070.0, 167080.0, 167090.0, 167100.0, 167110.0, 167120.0, 167130.0, 167140.0, 167150.0, 167160.0, 167170.0, 167180.0, 167190.0, 167200.0, 167210.0, 167220.0, 167230.0, 167240.0]","[167241.0, 167251.0, 167261.0, 167271.0, 167281.0, 167291.0, 167301.0, 167311.0, 167321.0, 167331.0, 167341.0, 167351.0, 167361.0, 167371.0, 167381.0, 167391.0, 167401.0, 167411.0, 167421.0, 167431.0, 167441.0, 167451.0, 167461.0, 167471.0, 167481.0, 167491.0, 167501.0, 167511.0, 167521.0, 167531.0, 167541.0, 167551.0, 167561.0, 167571.0, 167581.0, 167591.0, 167601.0, 167611.0, 167621.0, 167631.0, 167641.0, 167651.0, 167661.0, 167671.0, 167681.0, 167691.0, 167701.0, 167711.0, 167721.0, 167731.0, 167741.0, 167751.0, 167761.0, 167771.0, 167781.0, 167791.0, 167801.0, 167811.0, 167821.0, 167831.0, 167841.0, 167851.0, 167861.0, 167871.0, 167881.0, 167891.0, 167901.0, 167911.0, 167921.0, 167931.0, 167941.0, 167951.0, 167961.0, 167971.0, 167981.0, 167991.0, 168001.0, 168004]","example_experiment","13","9560","13","yes","768","2","[0, 0, 0, 0, 0, 0, 0, 0, 0, 0, 0, 0, 0, 0, 0, 0, 0, 0, 0, 0, 0, 0, 0, 0, 0, 0]","[0, 0, 0, 0, 0, 0, 0, 0, 0, 0, 0, 0, 0, 0, 0, 0, 2, 3, 4, 5, 6, 6, 6, 6, 4, 2, 1, -1, -1, -1, -1, -2, -4, -7, -9, -9, -9, -5, 3, 13, 25, 36, 48, 58, 66, 70, 73, 73, 73, 71, 66, 61, 55, 50, 45, 39, 34, 28, 21, 15, 7, 2, -2, -6, -8, -9, -9, -9, -7, -3, 0, 2, 3, 3, 3, 3, 4, 4]","[0, 0, 0, 0, 0, 0, 0, 0, 0, 0, 0, 0, 0, 0, 0, 0, 0, 0, 0, 0, 0, 0, 0, 0, 0, 0]","[0, 0, 0, 0, 0, 0, -3, -8, -13, -19, -29, -41, -54, -70, -85, -99, -112, -121, -130, -137, -142, -149, -155, -163, -169, -174, -177, -180, -181, -181, -181, -179, -174, -164, -143, -119, -83, -42, 6, 57, 109, 153, 190, 214, 227, 233, 235, 236, 236, 238, 239, 240, 240, 241, 241, 242, 243, 245, 247, 248, 249, 251, 254, 258, 263, 269, 277, 288, 299, 308, 316, 321, 324, 324, 324, 324, 324, 324]"
"100","100","726.857142857","726.857142857","black","no","prac","3","legacy","legacy","w.png","r.png","w.png","w.png","1","legacy","0","relative","1","undefined","NA","red","NA","undefined","1","undefined","undefined","red","1","0","3","0","14","0","NA","14","14","14","14","14","0","14","14","14","14","0","4","NA","NA","14","0","0","0","0","0","0","0","14","11/04/20 17:33:02","Default description","yes","simont_HV.osexp","C:\Users\admin\Desktop\채은\!MouseTracking_final","no","sans","no","18","no","black","no","yes","768","90","None","90","0","legacy","14","14","1","C:/Users/admin/Desktop/채은/!MouseTracking_final/subject-23.csv","legacy","1","2","1","Kafkaesque Koffka","3.2.6","0","red","space","NA","None","red","start","space","NA","NA","NA","NA","616","100227","NA","250","616","1118","23277","NA","NA","NA","NA","2","legacy","1024","2","48000","-16","experiment","23","odd","legacy","red","green","blue","yellow","1","25662","NA","NA","171620","2380","NA","170246","170751","171003","169127","131066","2384","171632","172632","170751","171003","NA","NA","NA","NA","169127","NA","NA","NA","NA","NA","NA","125890","169126","[170752.0, 170762.0, 170772.0, 170782.0, 170792.0, 170802.0, 170812.0, 170822.0, 170832.0, 170842.0, 170852.0, 170862.0, 170872.0, 170882.0, 170892.0, 170902.0, 170912.0, 170922.0, 170932.0, 170942.0, 170952.0, 170962.0, 170972.0, 170982.0, 170992.0, 171002.0]","[171003.0, 171013.0, 171023.0, 171033.0, 171043.0, 171053.0, 171063.0, 171073.0, 171083.0, 171093.0, 171103.0, 171113.0, 171123.0, 171133.0, 171143.0, 171153.0, 171163.0, 171173.0, 171183.0, 171193.0, 171203.0, 171213.0, 171223.0, 171233.0, 171243.0, 171253.0, 171263.0, 171273.0, 171283.0, 171293.0, 171303.0, 171313.0, 171323.0, 171333.0, 171343.0, 171353.0, 171363.0, 171373.0, 171383.0, 171393.0, 171403.0, 171413.0, 171423.0, 171433.0, 171443.0, 171453.0, 171463.0, 171473.0, 171483.0, 171493.0, 171503.0, 171513.0, 171523.0, 171533.0, 171543.0, 171553.0, 171563.0, 171573.0, 171583.0, 171593.0, 171603.0, 171613.0, 171619]","example_experiment","14","10176","14","yes","768","1","[0, 0, 0, 0, 0, 0, 0, 0, 0, 0, 0, 0, 0, 0, 0, 0, 0, 0, 0, 0, 0, 0, 0, 0, 0, 0]","[0, 0, 0, 0, 0, 0, 0, 0, 0, 0, -1, -3, -7, -13, -21, -31, -47, -65, -81, -101, -119, -135, -150, -164, -174, -183, -190, -196, -203, -210, -217, -225, -234, -244, -252, -259, -264, -267, -268, -268, -269, -270, -271, -274, -278, -282, -285, -286, -287, -287, -287, -287, -288, -290, -293, -297, -300, -303, -303, -303, -303, -303, -303]","[0, 0, 0, 0, 0, 0, 0, 0, 0, 0, 0, 0, 0, 0, 0, 0, 0, 0, 0, 0, 0, 0, 0, 0, 0, 0]","[0, 0, 0, 0, 0, 0, 0, 0, 0, 0, 0, 0, 1, 2, 3, 4, 6, 8, 9, 12, 12, 13, 13, 13, 13, 13, 13, 13, 13, 13, 13, 12, 10, 9, 8, 7, 7, 5, 5, 5, 4, 4, 3, 3, 3, 3, 3, 3, 3, 3, 3, 3, 2, 1, 1, 1, 1, 1, 1, 1, 1, 1, 1]"
"100","100","721.266666667","721.266666667","black","no","prac","2","legacy","legacy","b.png","w.png","w.png","w.png","1","legacy","0","relative","1","undefined","NA","blue","NA","undefined","1","undefined","undefined","blue","3","0","3","0","15","0","NA","15","15","15","15","15","0","15","15","15","15","0","4","NA","NA","15","0","0","0","0","0","0","0","15","11/04/20 17:33:02","Default description","yes","simont_HV.osexp","C:\Users\admin\Desktop\채은\!MouseTracking_final","no","sans","no","18","no","black","no","yes","768","180","None","180","100","legacy","15","15","2","C:/Users/admin/Desktop/채은/!MouseTracking_final/subject-23.csv","legacy","2","1","2","Kafkaesque Koffka","3.2.6","0","blue","space","NA","None","blue","start","space","NA","NA","NA","NA","643","100227","NA","250","643","429","23277","NA","NA","NA","NA","2","legacy","1024","2","48000","-16","experiment","23","odd","legacy","red","green","blue","yellow","2","25662","NA","NA","174575","2380","NA","173175","173679","173931","172743","131066","2384","174582","175582","173679","173931","NA","NA","NA","NA","172743","NA","NA","NA","NA","NA","NA","125890","172742","[173680.0, 173690.0, 173700.0, 173710.0, 173720.0, 173730.0, 173740.0, 173750.0, 173760.0, 173770.0, 173780.0, 173790.0, 173800.0, 173810.0, 173820.0, 173830.0, 173840.0, 173850.0, 173860.0, 173870.0, 173880.0, 173890.0, 173900.0, 173910.0, 173920.0, 173930.0]","[173931.0, 173941.0, 173951.0, 173961.0, 173971.0, 173981.0, 173991.0, 174001.0, 174011.0, 174021.0, 174031.0, 174041.0, 174051.0, 174061.0, 174071.0, 174081.0, 174091.0, 174101.0, 174111.0, 174121.0, 174131.0, 174141.0, 174151.0, 174161.0, 174171.0, 174181.0, 174191.0, 174201.0, 174211.0, 174221.0, 174231.0, 174241.0, 174251.0, 174261.0, 174271.0, 174281.0, 174291.0, 174301.0, 174311.0, 174321.0, 174331.0, 174341.0, 174351.0, 174361.0, 174371.0, 174381.0, 174391.0, 174401.0, 174411.0, 174421.0, 174431.0, 174441.0, 174451.0, 174461.0, 174471.0, 174481.0, 174491.0, 174501.0, 174511.0, 174521.0, 174531.0, 174541.0, 174551.0, 174561.0, 174571.0, 174574]","example_experiment","15","10819","15","yes","768","4","[0, 0, 0, 0, 0, 0, 0, 0, 0, 0, 0, 0, 0, 0, 0, 0, 0, 0, 0, 0, 0, 0, 0, 0, 0, 0]","[0, 0, 0, 0, 0, 0, 0, 0, 0, 0, 0, 0, 0, 0, 0, 0, 0, 0, 0, 0, 0, 0, 0, -1, -2, -3, -5, -7, -9, -12, -14, -18, -22, -26, -29, -30, -32, -33, -34, -34, -34, -34, -34, -33, -33, -31, -29, -28, -26, -26, -26, -26, -26, -26, -26, -26, -26, -26, -25, -22, -21, -20, -19, -19, -19, -19]","[0, 0, 0, 0, 0, 0, 0, 0, 0, 0, 0, 0, 0, 0, 0, 0, 0, 0, 0, 0, 0, 0, 0, 0, 0, 0]","[0, 0, 0, 0, 0, 0, 0, 0, 0, 0, 0, 0, 0, 0, 0, 0, 0, 0, 0, -1, -5, -10, -18, -27, -36, -46, -54, -61, -69, -78, -90, -104, -120, -137, -153, -169, -181, -193, -204, -214, -224, -234, -245, -255, -263, -272, -282, -291, -299, -305, -309, -312, -313, -313, -313, -313, -313, -313, -313, -313, -313, -314, -315, -315, -315, -315]"
"100","100","711.375","711.375","black","no","prac","4","legacy","legacy","w.png","w.png","r.png","w.png","1","legacy","0","relative","1","undefined","NA","red","NA","undefined","1","undefined","undefined","red","1","0","3","0","16","0","NA","16","16","16","16","16","0","16","16","16","16","0","4","NA","NA","16","0","0","0","0","0","0","0","16","11/04/20 17:33:02","Default description","yes","simont_HV.osexp","C:\Users\admin\Desktop\채은\!MouseTracking_final","no","sans","no","18","no","black","no","yes","768","130","None","130","0","legacy","16","16","2","C:/Users/admin/Desktop/채은/!MouseTracking_final/subject-23.csv","legacy","2","2","1","Kafkaesque Koffka","3.2.6","0","red","space","NA","None","red","start","space","NA","NA","NA","NA","563","100227","NA","250","563","330","23277","NA","NA","NA","NA","2","legacy","1024","2","48000","-16","experiment","23","odd","legacy","red","green","blue","yellow","1","25662","NA","NA","177340","2380","NA","176020","176524","176776","175688","131066","2384","177352","178352","176524","176776","NA","NA","NA","NA","175688","NA","NA","NA","NA","NA","NA","125890","175687","[176525.0, 176535.0, 176545.0, 176555.0, 176565.0, 176575.0, 176585.0, 176595.0, 176605.0, 176615.0, 176625.0, 176635.0, 176645.0, 176655.0, 176665.0, 176675.0, 176685.0, 176695.0, 176705.0, 176715.0, 176725.0, 176735.0, 176745.0, 176755.0, 176765.0, 176775.0]","[176776.0, 176786.0, 176796.0, 176806.0, 176816.0, 176826.0, 176836.0, 176846.0, 176856.0, 176866.0, 176876.0, 176886.0, 176896.0, 176906.0, 176916.0, 176926.0, 176936.0, 176946.0, 176956.0, 176966.0, 176976.0, 176986.0, 176996.0, 177006.0, 177016.0, 177026.0, 177036.0, 177046.0, 177056.0, 177066.0, 177076.0, 177086.0, 177096.0, 177106.0, 177116.0, 177126.0, 177136.0, 177146.0, 177156.0, 177166.0, 177176.0, 177186.0, 177196.0, 177206.0, 177216.0, 177226.0, 177236.0, 177246.0, 177256.0, 177266.0, 177276.0, 177286.0, 177296.0, 177306.0, 177316.0, 177326.0, 177336.0, 177339]","example_experiment","16","11382","16","yes","768","2","[0, 0, 0, 0, 0, 0, 0, 0, 0, 0, 0, 0, 0, 0, 0, 0, 0, 0, 0, 0, 0, 0, 0, 0, 0, 0]","[0, 0, 0, 0, 0, 0, 0, 0, 0, 0, 0, 0, 0, 0, -1, -4, -10, -17, -29, -43, -62, -85, -107, -130, -149, -170, -184, -198, -208, -219, -227, -234, -240, -244, -247, -249, -251, -254, -257, -260, -263, -265, -268, -270, -272, -275, -279, -283, -286, -288, -289, -289, -290, -292, -295, -297, -299, -299]","[0, 0, 0, 0, 0, 0, 0, 0, 0, 0, 0, 0, 0, 0, 0, 0, 0, 0, 0, 0, 0, 0, 0, 0, 0, 0]","[0, 0, 0, 0, 0, 0, 0, 0, 0, 0, 0, 0, 0, 0, 0, 2, 3, 5, 6, 8, 10, 12, 14, 17, 19, 21, 22, 22, 22, 22, 23, 23, 25, 26, 26, 26, 26, 26, 24, 23, 21, 19, 17, 14, 11, 8, 4, 2, 1, 0, 0, 0, 0, 0, -1, -1, -1, -1]"
"100","100","705.470588235","705.470588235","black","no","prac","4","legacy","legacy","b.png","w.png","w.png","w.png","1","legacy","0","relative","1","undefined","NA","blue","NA","undefined","1","undefined","undefined","blue","3","0","3","0","17","0","NA","17","17","17","17","17","0","17","17","17","17","0","4","NA","NA","17","0","0","0","0","0","0","0","17","11/04/20 17:33:02","Default description","yes","simont_HV.osexp","C:\Users\admin\Desktop\채은\!MouseTracking_final","no","sans","no","18","no","black","no","yes","768","150","None","150","None","legacy","17","17","2","C:/Users/admin/Desktop/채은/!MouseTracking_final/subject-23.csv","legacy","2","2","2","Kafkaesque Koffka","3.2.6","0","blue","space","NA","None","blue","start","space","NA","NA","NA","NA","611","100227","NA","250","611","249","23277","NA","NA","NA","NA","2","legacy","1024","2","48000","-16","experiment","23","odd","legacy","red","green","blue","yellow","2","25662","NA","NA","180078","2380","NA","178710","179214","179466","178459","131066","2384","180082","181082","179214","179466","NA","NA","NA","NA","178459","NA","NA","NA","NA","NA","NA","125890","178458","[179215.0, 179225.0, 179235.0, 179245.0, 179255.0, 179265.0, 179275.0, 179285.0, 179295.0, 179305.0, 179315.0, 179325.0, 179335.0, 179345.0, 179355.0, 179365.0, 179375.0, 179385.0, 179395.0, 179405.0, 179415.0, 179425.0, 179435.0, 179445.0, 179455.0, 179465.0]","[179466.0, 179476.0, 179486.0, 179496.0, 179506.0, 179516.0, 179526.0, 179536.0, 179546.0, 179556.0, 179566.0, 179576.0, 179586.0, 179596.0, 179606.0, 179616.0, 179626.0, 179636.0, 179646.0, 179656.0, 179666.0, 179676.0, 179686.0, 179696.0, 179706.0, 179716.0, 179726.0, 179736.0, 179746.0, 179756.0, 179766.0, 179776.0, 179786.0, 179796.0, 179806.0, 179816.0, 179826.0, 179836.0, 179846.0, 179856.0, 179866.0, 179876.0, 179886.0, 179896.0, 179906.0, 179916.0, 179926.0, 179936.0, 179946.0, 179956.0, 179966.0, 179976.0, 179986.0, 179996.0, 180006.0, 180016.0, 180026.0, 180036.0, 180046.0, 180056.0, 180066.0, 180076.0, 180077]","example_experiment","17","11993","17","yes","768","4","[0, 0, 0, 0, 0, 0, 0, 0, 0, 0, 0, 0, 0, 0, 0, 0, 0, 0, 0, 0, 0, 0, 0, 0, 0, 0]","[0, 0, 0, 0, 0, 0, 0, 0, 0, 0, 0, 0, 0, 0, 0, 0, 1, 1, 1, 1, 1, 1, 1, 1, 1, 1, 1, 1, 2, 3, 3, 3, 3, 3, 3, 3, 4, 5, 5, 5, 5, 5, 5, 5, 5, 5, 5, 5, 5, 5, 4, 4, 3, 3, 3, 3, 3, 3, 2, 2, 2, 2, 2]","[0, 0, 0, 0, 0, 0, 0, 0, 0, 0, 0, 0, 0, 0, 0, 0, 0, 0, 0, 0, 0, 0, 0, 0, 0, 0]","[0, 0, 0, 0, 0, 0, 0, 0, 0, 0, 0, 0, 0, 0, 0, 0, -4, -10, -18, -27, -39, -54, -75, -96, -119, -138, -156, -172, -187, -203, -216, -230, -242, -250, -257, -263, -267, -271, -275, -278, -281, -282, -282, -282, -282, -282, -282, -282, -282, -283, -285, -287, -288, -289, -290, -291, -291, -291, -292, -293, -294, -294, -294]"
"100","100","700.166666667","700.166666667","black","no","prac","4","legacy","legacy","w.png","g.png","w.png","w.png","2","legacy","0","relative","1","undefined","NA","green","NA","undefined","1","undefined","undefined","green","2","0","3","0","18","0","NA","18","18","18","18","18","0","18","18","18","18","0","4","NA","NA","18","0","0","0","0","0","0","0","18","11/04/20 17:33:02","Default description","yes","simont_HV.osexp","C:\Users\admin\Desktop\채은\!MouseTracking_final","no","sans","no","18","no","black","no","yes","768","0","240","0","20","legacy","18","18","1","C:/Users/admin/Desktop/채은/!MouseTracking_final/subject-23.csv","legacy","2","2","2","Kafkaesque Koffka","3.2.6","0","green","space","NA","None","green","start","space","NA","NA","NA","NA","610","100227","NA","250","610","268","23277","NA","NA","NA","NA","2","legacy","1024","2","48000","-16","experiment","23","odd","legacy","red","green","blue","yellow","1","25662","NA","NA","182826","2380","NA","181459","181963","182215","181189","131066","2384","182832","183832","181963","182215","NA","NA","NA","NA","181189","NA","NA","NA","NA","NA","NA","125890","181188","[181964.0, 181974.0, 181984.0, 181994.0, 182004.0, 182014.0, 182024.0, 182034.0, 182044.0, 182054.0, 182064.0, 182074.0, 182084.0, 182094.0, 182104.0, 182114.0, 182124.0, 182134.0, 182144.0, 182154.0, 182164.0, 182174.0, 182184.0, 182194.0, 182204.0, 182214.0]","[182215.0, 182225.0, 182235.0, 182245.0, 182255.0, 182265.0, 182275.0, 182285.0, 182295.0, 182305.0, 182315.0, 182325.0, 182335.0, 182345.0, 182355.0, 182365.0, 182375.0, 182385.0, 182395.0, 182405.0, 182415.0, 182425.0, 182435.0, 182445.0, 182455.0, 182465.0, 182475.0, 182485.0, 182495.0, 182505.0, 182515.0, 182525.0, 182535.0, 182545.0, 182555.0, 182565.0, 182575.0, 182585.0, 182595.0, 182605.0, 182615.0, 182625.0, 182635.0, 182645.0, 182655.0, 182665.0, 182675.0, 182685.0, 182695.0, 182705.0, 182715.0, 182725.0, 182735.0, 182745.0, 182755.0, 182765.0, 182775.0, 182785.0, 182795.0, 182805.0, 182815.0, 182825.0, 182825]","example_experiment","18","12603","18","yes","768","4","[0, 0, 0, 0, 0, 0, 0, 0, 0, 0, 0, 0, 0, 0, 0, 0, 0, 0, 0, 0, 0, 0, 0, 0, 0, -1]","[-1, -4, -6, -8, -9, -11, -11, -11, -12, -12, -13, -13, -14, -14, -14, -14, -14, -14, -14, -14, -13, -9, -2, 9, 25, 46, 69, 94, 123, 147, 166, 183, 194, 202, 207, 211, 212, 213, 213, 213, 215, 217, 223, 229, 237, 244, 251, 255, 257, 258, 258, 258, 259, 262, 266, 272, 279, 285, 290, 294, 294, 294, 294]","[0, 0, 0, 0, 0, 0, 0, 0, 0, 0, 0, 0, 0, 0, 0, 0, 0, 0, 0, 0, 0, 0, 0, 0, 0, 0]","[0, 0, 0, 1, 1, 1, 1, 1, 2, 2, 3, 3, 3, 3, 3, 3, 3, 3, 3, 3, 3, 2, 1, 0, -1, -2, -2, -2, -2, -2, -1, -1, -1, 0, 0, 0, 0, 0, -1, -1, -2, -2, -3, -5, -6, -6, -6, -6, -6, -6, -6, -6, -6, -6, -6, -6, -6, -6, -6, -6, -6, -6, -6]"
"100","100","721.842105263","721.842105263","black","no","prac","3","legacy","legacy","y.png","w.png","w.png","w.png","2","legacy","0","relative","1","undefined","NA","yellow","NA","undefined","1","undefined","undefined","yellow","4","0","3","0","19","0","NA","19","19","19","19","19","0","19","19","19","19","0","4","NA","NA","19","0","0","0","0","0","0","0","19","11/04/20 17:33:02","Default description","yes","simont_HV.osexp","C:\Users\admin\Desktop\채은\!MouseTracking_final","no","sans","no","18","no","black","no","yes","768","140","None","140","60","legacy","19","19","2","C:/Users/admin/Desktop/채은/!MouseTracking_final/subject-23.csv","legacy","1","2","2","Kafkaesque Koffka","3.2.6","0","yellow","space","NA","None","yellow","start","space","NA","NA","NA","NA","1112","100227","NA","250","1112","263","23277","NA","NA","NA","NA","2","legacy","1024","2","48000","-16","experiment","23","odd","legacy","red","green","blue","yellow","2","25662","NA","NA","186064","2380","NA","184194","184699","184951","183930","131066","2384","186072","187072","184699","184951","NA","NA","NA","NA","183930","NA","NA","NA","NA","NA","NA","125890","183929","[184700.0, 184710.0, 184720.0, 184730.0, 184740.0, 184750.0, 184760.0, 184770.0, 184780.0, 184790.0, 184800.0, 184810.0, 184820.0, 184830.0, 184840.0, 184850.0, 184860.0, 184870.0, 184880.0, 184890.0, 184900.0, 184910.0, 184920.0, 184930.0, 184940.0, 184950.0]","[184951.0, 184961.0, 184971.0, 184981.0, 184991.0, 185001.0, 185011.0, 185021.0, 185031.0, 185041.0, 185051.0, 185061.0, 185071.0, 185081.0, 185091.0, 185101.0, 185111.0, 185121.0, 185131.0, 185141.0, 185151.0, 185161.0, 185171.0, 185181.0, 185191.0, 185201.0, 185211.0, 185221.0, 185231.0, 185241.0, 185251.0, 185261.0, 185271.0, 185281.0, 185291.0, 185301.0, 185311.0, 185321.0, 185331.0, 185341.0, 185351.0, 185361.0, 185371.0, 185381.0, 185391.0, 185401.0, 185411.0, 185421.0, 185431.0, 185441.0, 185451.0, 185461.0, 185471.0, 185481.0, 185491.0, 185501.0, 185511.0, 185521.0, 185528, 185538.0, 185548.0, 185558.0, 185568.0, 185578.0, 185588.0, 185598.0, 185608.0, 185618.0, 185628.0, 185638.0, 185648.0, 185658.0, 185668.0, 185678.0, 185688.0, 185698.0, 185708.0, 185718.0, 185728.0, 185738.0, 185748.0, 185758.0, 185768.0, 185778.0, 185788.0, 185798.0, 185808.0, 185818.0, 185828.0, 185838.0, 185848.0, 185858.0, 185868.0, 185878.0, 185888.0, 185898.0, 185908.0, 185918.0, 185928.0, 185938.0, 185948.0, 185958.0, 185968.0, 185978.0, 185988.0, 185998.0, 186008.0, 186018.0, 186028.0, 186038.0, 186048.0, 186058.0, 186063]","example_experiment","19","13715","19","yes","768","3","[0, 0, 0, 0, 0, 0, 0, 0, 0, 0, 0, 0, 0, 0, 0, 0, 0, 0, 0, 0, 0, 0, 0, 0, 0, 0]","[0, 0, 0, 0, 0, 0, 0, 0, 0, 0, 0, 0, 0, 0, 0, -1, -1, -2, -2, -3, -3, -3, -3, -3, -2, -2, -1, 0, 0, 0, 0, -3, -7, -12, -15, -16, -17, -18, -18, -18, -18, -18, -18, -18, -18, -18, -18, -18, -18, -18, -18, -18, -17, -15, -14, -12, -11, -9, -8, -8, -8, -8, -8, -8, -7, -7, -6, -6, -6, -6, -6, -5, -5, -5, -5, -5, -5, -5, -5, -5, -5, -5, -5, -5, -5, -5, -5, -5, -5, -5, -5, -5, -4, -4, -3, -2, -1, -1, 0, 0, 0, 1, 1, 1, 1, 1, 1, 1, 1, 1, 1, 1, 1]","[0, 0, 0, 0, 0, 0, 0, 0, 0, 0, 0, 0, 0, 0, 0, 0, 0, 0, 0, 0, 0, 0, 0, 0, 0, 0]","[0, 0, 0, 0, 0, 0, 0, 0, 0, 0, 0, 0, 0, 0, 0, 1, 1, 4, 7, 11, 18, 26, 40, 55, 73, 92, 111, 129, 145, 165, 184, 202, 219, 236, 250, 259, 267, 271, 274, 275, 275, 275, 275, 275, 275, 275, 275, 275, 275, 275, 275, 276, 277, 279, 280, 282, 283, 284, 285, 285, 285, 285, 285, 285, 286, 287, 287, 288, 288, 288, 288, 288, 288, 287, 287, 286, 286, 286, 286, 286, 286, 286, 286, 286, 286, 286, 286, 286, 286, 286, 286, 287, 289, 291, 293, 296, 299, 302, 303, 305, 306, 306, 306, 306, 306, 306, 306, 306, 306, 306, 306, 306, 306]"
"100","100","712.2","712.2","black","no","prac","2","legacy","legacy","w.png","w.png","r.png","w.png","1","legacy","0","relative","1","undefined","NA","red","NA","undefined","1","undefined","undefined","red","1","0","3","0","20","0","NA","20","20","20","20","20","0","20","20","20","20","0","4","NA","NA","20","0","0","0","0","0","0","0","20","11/04/20 17:33:02","Default description","yes","simont_HV.osexp","C:\Users\admin\Desktop\채은\!MouseTracking_final","no","sans","no","18","no","black","no","yes","768","30","None","30","0","legacy","20","20","2","C:/Users/admin/Desktop/채은/!MouseTracking_final/subject-23.csv","legacy","2","1","2","Kafkaesque Koffka","3.2.6","0","red","space","NA","None","red","start","space","NA","NA","NA","NA","529","100227","NA","250","529","314","23277","NA","NA","NA","NA","2","legacy","1024","2","48000","-16","experiment","23","odd","legacy","red","green","blue","yellow","1","25662","NA","NA","188791","2380","NA","187505","188009","188261","187189","131066","2384","188812","189812","188009","188261","NA","NA","NA","NA","187188","NA","NA","NA","NA","NA","NA","125890","187187","[188010.0, 188020.0, 188030.0, 188040.0, 188050.0, 188060.0, 188070.0, 188080.0, 188090.0, 188100.0, 188110.0, 188120.0, 188130.0, 188140.0, 188150.0, 188160.0, 188170.0, 188180.0, 188190.0, 188200.0, 188210.0, 188220.0, 188230.0, 188240.0, 188250.0, 188260.0]","[188261.0, 188271.0, 188281.0, 188291.0, 188301.0, 188311.0, 188321.0, 188331.0, 188341.0, 188351.0, 188361.0, 188371.0, 188381.0, 188391.0, 188401.0, 188411.0, 188421.0, 188431.0, 188441.0, 188451.0, 188461.0, 188471.0, 188481.0, 188491.0, 188501.0, 188511.0, 188521.0, 188531.0, 188541.0, 188551.0, 188561.0, 188571.0, 188581.0, 188591.0, 188601.0, 188611.0, 188621.0, 188631.0, 188641.0, 188651.0, 188661.0, 188671.0, 188681.0, 188691.0, 188701.0, 188711.0, 188721.0, 188731.0, 188741.0, 188751.0, 188761.0, 188771.0, 188781.0, 188790]","example_experiment","20","14244","20","yes","768","4","[0, 0, 0, 0, 0, 0, 0, 0, 0, 0, 0, 0, 0, 0, 0, 0, 0, 0, 0, 0, 0, 0, 0, 0, 0, 0]","[0, 0, 0, 0, -1, -3, -7, -14, -23, -35, -50, -67, -88, -109, -129, -150, -167, -184, -199, -212, -220, -226, -230, -231, -233, -234, -234, -235, -235, -236, -236, -236, -236, -237, -240, -243, -248, -255, -262, -269, -278, -285, -292, -298, -304, -309, -313, -316, -318, -318, -318, -318, -318, -318]","[0, 0, 0, 0, 0, 0, 0, 0, 0, 0, 0, 0, 0, 0, 0, 0, 0, 0, 0, 0, 0, 0, 0, 0, 0, 0]","[0, 0, 0, 0, 0, 0, 2, 4, 6, 9, 11, 12, 12, 12, 12, 12, 11, 11, 10, 9, 9, 9, 9, 9, 9, 9, 9, 10, 10, 10, 10, 10, 10, 10, 10, 10, 10, 11, 11, 11, 11, 11, 11, 11, 11, 11, 11, 10, 10, 10, 10, 10, 10, 10]"
"100","100","712.428571429","712.428571429","black","no","prac","4","legacy","legacy","w.png","w.png","w.png","y.png","2","legacy","0","relative","1","undefined","NA","yellow","NA","undefined","1","undefined","undefined","yellow","4","0","3","0","21","0","NA","21","21","21","21","21","0","21","21","21","21","0","4","NA","NA","21","0","0","0","0","0","0","0","21","11/04/20 17:33:02","Default description","yes","simont_HV.osexp","C:\Users\admin\Desktop\채은\!MouseTracking_final","no","sans","no","18","no","black","no","yes","768","190","None","190","0","legacy","21","21","1","C:/Users/admin/Desktop/채은/!MouseTracking_final/subject-23.csv","legacy","2","2","1","Kafkaesque Koffka","3.2.6","0","yellow","space","NA","None","yellow","start","space","NA","NA","NA","NA","717","100227","NA","250","717","389","23277","NA","NA","NA","NA","2","legacy","1024","2","48000","-16","experiment","23","odd","legacy","red","green","blue","yellow","2","25662","NA","NA","191802","2380","NA","190331","190833","191084","189940","131066","2384","191812","192812","190833","191084","NA","NA","NA","NA","189939","NA","NA","NA","NA","NA","NA","125890","189938","[190833.0, 190843.0, 190853.0, 190863.0, 190873.0, 190883.0, 190893.0, 190903.0, 190913.0, 190923.0, 190933.0, 190943.0, 190953.0, 190963.0, 190973.0, 190983.0, 190993.0, 191003.0, 191013.0, 191023.0, 191033.0, 191043.0, 191053.0, 191063.0, 191073.0, 191083.0]","[191084.0, 191094.0, 191104.0, 191114.0, 191124.0, 191134.0, 191144.0, 191154.0, 191164.0, 191174.0, 191184.0, 191194.0, 191204.0, 191214.0, 191224.0, 191234.0, 191244.0, 191254.0, 191264.0, 191274.0, 191284.0, 191294.0, 191304.0, 191314.0, 191324.0, 191334.0, 191344.0, 191354.0, 191364.0, 191374.0, 191384.0, 191394.0, 191404.0, 191414.0, 191424.0, 191434.0, 191444.0, 191454.0, 191464.0, 191474.0, 191484.0, 191494.0, 191504.0, 191514.0, 191524.0, 191534.0, 191544.0, 191554.0, 191564.0, 191574.0, 191584.0, 191594.0, 191604.0, 191614.0, 191624.0, 191634.0, 191644.0, 191654.0, 191664.0, 191674.0, 191684.0, 191694.0, 191704.0, 191714.0, 191724.0, 191734.0, 191744.0, 191754.0, 191764.0, 191774.0, 191784.0, 191794.0, 191801]","example_experiment","21","14961","21","yes","768","2","[0, 0, 0, 0, 0, 0, 0, 0, 0, 0, 0, 0, 0, 0, 0, 0, 0, 0, 0, 0, 0, 0, 0, 0, 0, 0]","[0, 0, 0, 0, 0, 0, 0, 0, 0, 0, 0, 0, 0, 0, 0, 0, 0, 0, 0, 0, -1, -3, -5, -8, -12, -15, -18, -19, -19, -18, -13, -6, 0, 5, 9, 12, 14, 16, 16, 17, 17, 17, 17, 16, 15, 13, 12, 10, 7, 4, 1, -1, -3, -4, -4, -4, -4, -4, -4, -4, -4, -4, -4, -4, -4, -4, -4, -3, -2, -2, -1, -1, -1]","[0, 0, 0, 0, 0, 0, 0, 0, 0, 0, 0, 0, 0, 0, 0, 0, 0, 0, 0, 0, 0, 0, 0, 0, 0, 0]","[0, 0, 0, 0, 0, 0, 0, 0, 0, 0, 0, 0, 0, 0, 0, 0, 0, 0, 0, 0, 4, 11, 21, 32, 46, 61, 79, 101, 125, 147, 166, 183, 196, 206, 213, 219, 225, 230, 233, 236, 239, 241, 245, 248, 252, 256, 260, 265, 271, 275, 280, 284, 288, 292, 295, 296, 298, 299, 299, 299, 299, 299, 299, 299, 299, 299, 300, 302, 303, 304, 305, 306, 306]"
"100","100","713.181818182","713.181818182","black","no","prac","4","legacy","legacy","w.png","g.png","w.png","w.png","2","legacy","0","relative","1","undefined","NA","green","NA","undefined","1","undefined","undefined","green","2","0","3","0","22","0","NA","22","22","22","22","22","0","22","22","22","22","0","4","NA","NA","22","0","0","0","0","0","0","0","22","11/04/20 17:33:02","Default description","yes","simont_HV.osexp","C:\Users\admin\Desktop\채은\!MouseTracking_final","no","sans","no","18","no","black","no","yes","768","0","230","0","None","legacy","22","22","1","C:/Users/admin/Desktop/채은/!MouseTracking_final/subject-23.csv","legacy","2","2","2","Kafkaesque Koffka","3.2.6","0","green","space","NA","None","green","start","space","NA","NA","NA","NA","729","100227","NA","250","729","266","23277","NA","NA","NA","NA","2","legacy","1024","2","48000","-16","experiment","23","odd","legacy","red","green","blue","yellow","1","25662","NA","NA","194694","2380","NA","193209","193712","193964","192941","131066","2384","194712","195712","193712","193964","NA","NA","NA","NA","192941","NA","NA","NA","NA","NA","NA","125890","192939","[193713.0, 193723.0, 193733.0, 193743.0, 193753.0, 193763.0, 193773.0, 193783.0, 193793.0, 193803.0, 193813.0, 193823.0, 193833.0, 193843.0, 193853.0, 193863.0, 193873.0, 193883.0, 193893.0, 193903.0, 193913.0, 193923.0, 193933.0, 193943.0, 193953.0, 193963.0]","[193964.0, 193974.0, 193984.0, 193994.0, 194004.0, 194014.0, 194024.0, 194034.0, 194044.0, 194054.0, 194064.0, 194074.0, 194084.0, 194094.0, 194104.0, 194114.0, 194124.0, 194134.0, 194144.0, 194154.0, 194164.0, 194174.0, 194184.0, 194194.0, 194204.0, 194214.0, 194224.0, 194234.0, 194244.0, 194254.0, 194264.0, 194274.0, 194284.0, 194294.0, 194304.0, 194314.0, 194324.0, 194334.0, 194344.0, 194354.0, 194364.0, 194374.0, 194384.0, 194394.0, 194404.0, 194414.0, 194424.0, 194434.0, 194444.0, 194454.0, 194464.0, 194474.0, 194484.0, 194494.0, 194504.0, 194514.0, 194524.0, 194534.0, 194544.0, 194554.0, 194564.0, 194574.0, 194584.0, 194594.0, 194604.0, 194614.0, 194624.0, 194634.0, 194644.0, 194654.0, 194664.0, 194674.0, 194684.0, 194693]","example_experiment","22","15690","22","yes","768","4","[0, 0, 0, 0, 0, 0, 0, 0, 0, 0, 0, 0, 0, 0, 0, 0, 0, 0, 0, 0, 0, 0, 0, 0, -3, -6]","[-7, -11, -14, -16, -17, -17, -17, -17, -19, -24, -30, -39, -49, -59, -68, -74, -78, -80, -81, -81, -81, -79, -73, -59, -42, -10, 26, 71, 118, 163, 200, 229, 248, 264, 270, 273, 273, 273, 273, 273, 273, 273, 273, 275, 277, 277, 278, 278, 278, 278, 278, 278, 278, 278, 278, 279, 280, 281, 281, 281, 282, 282, 283, 284, 287, 288, 291, 293, 295, 296, 297, 298, 298, 298]","[0, 0, 0, 0, 0, 0, 0, 0, 0, 0, 0, 0, 0, 0, 0, 0, 0, 0, 0, 0, 0, 0, 0, 0, 0, 0]","[0, 1, 1, 3, 3, 3, 3, 3, 4, 4, 6, 7, 9, 10, 11, 12, 13, 14, 14, 14, 14, 14, 14, 14, 14, 15, 15, 15, 15, 14, 10, 7, 4, 1, 0, 0, 0, -1, -1, -1, -1, -1, -1, -2, -2, -3, -3, -4, -4, -4, -4, -4, -4, -4, -4, -4, -4, -4, -5, -5, -5, -5, -5, -5, -5, -5, -5, -6, -6, -6, -7, -7, -7, -7]"
"100","100","713.47826087","713.47826087","black","no","prac","3","legacy","legacy","w.png","w.png","w.png","b.png","1","legacy","0","relative","1","undefined","NA","blue","NA","undefined","1","undefined","undefined","blue","3","0","3","0","23","0","NA","23","23","23","23","23","0","23","23","23","23","0","4","NA","NA","23","0","0","0","0","0","0","0","23","11/04/20 17:33:02","Default description","yes","simont_HV.osexp","C:\Users\admin\Desktop\채은\!MouseTracking_final","no","sans","no","18","no","black","no","yes","768","60","None","60","130","legacy","23","23","1","C:/Users/admin/Desktop/채은/!MouseTracking_final/subject-23.csv","legacy","1","2","2","Kafkaesque Koffka","3.2.6","0","blue","space","NA","None","blue","start","space","NA","NA","NA","NA","720","100227","NA","250","720","266","23277","NA","NA","NA","NA","2","legacy","1024","2","48000","-16","experiment","23","odd","legacy","red","green","blue","yellow","2","25662","NA","NA","197572","2380","NA","196095","196599","196851","195827","131066","2384","197592","198592","196599","196851","NA","NA","NA","NA","195827","NA","NA","NA","NA","NA","NA","125890","195825","[196600.0, 196610.0, 196620.0, 196630.0, 196640.0, 196650.0, 196660.0, 196670.0, 196680.0, 196690.0, 196700.0, 196710.0, 196720.0, 196730.0, 196740.0, 196750.0, 196760.0, 196770.0, 196780.0, 196790.0, 196800.0, 196810.0, 196820.0, 196830.0, 196840.0, 196850.0]","[196851.0, 196861.0, 196871.0, 196881.0, 196891.0, 196901.0, 196911.0, 196921.0, 196931.0, 196941.0, 196951.0, 196961.0, 196971.0, 196981.0, 196991.0, 197001.0, 197011.0, 197021.0, 197031.0, 197041.0, 197051.0, 197061.0, 197071.0, 197081.0, 197091.0, 197101.0, 197111.0, 197121.0, 197131.0, 197141.0, 197151.0, 197161.0, 197171.0, 197181.0, 197191.0, 197201.0, 197211.0, 197221.0, 197231.0, 197241.0, 197251.0, 197261.0, 197271.0, 197281.0, 197291.0, 197301.0, 197311.0, 197321.0, 197331.0, 197341.0, 197351.0, 197361.0, 197371.0, 197381.0, 197391.0, 197401.0, 197411.0, 197421.0, 197431.0, 197441.0, 197451.0, 197461.0, 197471.0, 197481.0, 197491.0, 197501.0, 197511.0, 197521.0, 197531.0, 197541.0, 197551.0, 197561.0, 197571.0, 197571]","example_experiment","23","16410","23","yes","768","3","[0, 0, 0, 0, 0, 0, 0, 0, 0, 0, 0, 0, 0, 0, 0, 0, 0, 0, 0, 0, 0, 0, 0, 0, 0, 0]","[0, 0, 0, 0, 0, 0, 0, 0, 1, 3, 6, 9, 11, 14, 17, 20, 23, 25, 27, 27, 27, 25, 22, 18, 14, 10, 6, 3, 1, 1, 0, 0, 0, 0, 1, 1, 1, 1, 1, 1, 1, 1, 1, 1, 2, 2, 2, 3, 3, 3, 3, 3, 1, 0, -1, -2, -2, -3, -3, -4, -4, -4, -4, -5, -5, -5, -5, -6, -6, -6, -6, -6, -6, -6]","[0, 0, 0, 0, 0, 0, 0, 0, 0, 0, 0, 0, 0, 0, 0, 0, 0, 0, 0, 0, 0, 0, 0, 0, 0, 0]","[0, 0, 0, 0, 0, 0, 0, 1, 4, 7, 10, 14, 17, 19, 21, 21, 21, 20, 17, 14, 9, 4, -3, -12, -21, -32, -41, -51, -62, -78, -93, -109, -124, -137, -151, -164, -176, -186, -197, -205, -213, -220, -225, -230, -234, -237, -241, -244, -246, -248, -251, -254, -257, -261, -265, -269, -272, -274, -279, -282, -284, -287, -291, -294, -297, -299, -301, -302, -304, -304, -304, -304, -304, -304]"
"100","100","703.083333333","703.083333333","black","no","prac","1","legacy","legacy","w.png","r.png","w.png","w.png","1","legacy","0","relative","1","undefined","NA","red","NA","undefined","1","undefined","undefined","red","1","0","3","0","24","0","NA","24","24","24","24","24","0","24","24","24","24","0","4","NA","NA","24","0","0","0","0","0","0","0","24","11/04/20 17:33:02","Default description","yes","simont_HV.osexp","C:\Users\admin\Desktop\채은\!MouseTracking_final","no","sans","no","18","no","black","no","yes","768","0","170","0","0","legacy","24","24","1","C:/Users/admin/Desktop/채은/!MouseTracking_final/subject-23.csv","legacy","1","1","2","Kafkaesque Koffka","3.2.6","0","red","space","NA","None","red","start","space","NA","NA","NA","NA","464","100227","NA","250","464","263","23277","NA","NA","NA","NA","2","legacy","1024","2","48000","-16","experiment","23","odd","legacy","red","green","blue","yellow","1","25662","NA","NA","200196","2380","NA","198975","199479","199731","198710","131066","2384","200202","201202","199479","199731","NA","NA","NA","NA","198710","NA","NA","NA","NA","NA","NA","125890","198708","[199480.0, 199490.0, 199500.0, 199510.0, 199520.0, 199530.0, 199540.0, 199550.0, 199560.0, 199570.0, 199580.0, 199590.0, 199600.0, 199610.0, 199620.0, 199630.0, 199640.0, 199650.0, 199660.0, 199670.0, 199680.0, 199690.0, 199700.0, 199710.0, 199720.0, 199730.0]","[199731.0, 199741.0, 199751.0, 199761.0, 199771.0, 199781.0, 199791.0, 199801.0, 199811.0, 199821.0, 199831.0, 199841.0, 199851.0, 199861.0, 199871.0, 199881.0, 199891.0, 199901.0, 199911.0, 199921.0, 199931.0, 199941.0, 199951.0, 199961.0, 199971.0, 199981.0, 199991.0, 200001.0, 200011.0, 200021.0, 200031.0, 200041.0, 200051.0, 200061.0, 200071.0, 200081.0, 200091.0, 200101.0, 200111.0, 200121.0, 200131.0, 200141.0, 200151.0, 200161.0, 200171.0, 200181.0, 200191.0, 200195]","example_experiment","24","16874","24","yes","768","3","[0, 0, 0, 0, 0, 0, 0, 0, 0, 0, 0, 0, 0, 0, 0, 0, 0, 0, 0, -1, -3, -5, -10, -17, -25, -35]","[-36, -49, -61, -77, -94, -111, -129, -149, -167, -185, -199, -209, -217, -222, -225, -228, -232, -235, -238, -241, -245, -249, -253, -257, -261, -266, -272, -278, -285, -292, -299, -305, -311, -314, -316, -317, -317, -318, -319, -321, -322, -323, -323, -323, -323, -323, -323, -323]","[0, 0, 0, 0, 0, 0, 0, 0, 0, 0, 0, 0, 0, 0, 0, 0, 0, 0, 1, 2, 4, 5, 7, 9, 10, 10]","[10, 10, 10, 10, 9, 8, 7, 6, 5, 5, 5, 5, 5, 5, 5, 5, 5, 5, 5, 6, 6, 7, 8, 10, 10, 11, 12, 13, 13, 13, 13, 13, 13, 12, 12, 12, 11, 11, 9, 8, 6, 5, 5, 5, 4, 4, 4, 4]"
"100","100","696.24","696.24","black","no","prac","2","legacy","legacy","w.png","w.png","w.png","y.png","2","legacy","0","relative","1","undefined","NA","yellow","NA","undefined","1","undefined","undefined","yellow","4","0","3","0","25","0","NA","25","25","25","25","25","0","25","25","25","25","0","4","NA","NA","25","0","0","0","0","0","0","0","25","11/04/20 17:33:02","Default description","yes","simont_HV.osexp","C:\Users\admin\Desktop\채은\!MouseTracking_final","no","sans","no","18","no","black","no","yes","768","0","240","0","None","legacy","25","25","1","C:/Users/admin/Desktop/채은/!MouseTracking_final/subject-23.csv","legacy","2","1","1","Kafkaesque Koffka","3.2.6","0","yellow","space","NA","None","yellow","start","space","NA","NA","NA","NA","532","100227","NA","250","532","279","23277","NA","NA","NA","NA","2","legacy","1024","2","48000","-16","experiment","23","odd","legacy","red","green","blue","yellow","2","25662","NA","NA","202886","2380","NA","201597","202101","202353","201316","131066","2384","202892","203892","202101","202353","NA","NA","NA","NA","201316","NA","NA","NA","NA","NA","NA","125890","201314","[202102.0, 202112.0, 202122.0, 202132.0, 202142.0, 202152.0, 202162.0, 202172.0, 202182.0, 202192.0, 202202.0, 202212.0, 202222.0, 202232.0, 202242.0, 202252.0, 202262.0, 202272.0, 202282.0, 202292.0, 202302.0, 202312.0, 202322.0, 202332.0, 202342.0, 202352.0]","[202353.0, 202363.0, 202373.0, 202383.0, 202393.0, 202403.0, 202413.0, 202423.0, 202433.0, 202443.0, 202453.0, 202463.0, 202473.0, 202483.0, 202493.0, 202503.0, 202513.0, 202523.0, 202533.0, 202543.0, 202553.0, 202563.0, 202573.0, 202583.0, 202593.0, 202603.0, 202613.0, 202623.0, 202633.0, 202643.0, 202653.0, 202663.0, 202673.0, 202683.0, 202693.0, 202703.0, 202713.0, 202723.0, 202733.0, 202743.0, 202753.0, 202763.0, 202773.0, 202783.0, 202793.0, 202803.0, 202813.0, 202823.0, 202833.0, 202843.0, 202853.0, 202863.0, 202873.0, 202883.0, 202885]","example_experiment","25","17406","25","yes","768","2","[0, 0, 0, 0, 0, 0, 0, 0, 0, 0, 0, 0, 0, 0, 0, 0, 0, 0, 0, 0, 0, 0, 0, 0, 0, 0]","[0, 0, 0, 0, 0, 0, -1, -3, -6, -7, -8, -8, -8, -8, -8, -9, -9, -10, -10, -10, -11, -11, -11, -11, -11, -8, -5, -3, -2, -2, -2, -2, -2, -2, -1, 0, 2, 3, 3, 3, 2, 0, -1, -2, -4, -5, -7, -7, -8, -8, -8, -8, -8, -8, -8]","[0, 0, 0, 0, 0, 0, 0, 0, 0, 0, 0, 0, 0, 0, 0, 0, 0, 0, 0, 0, 0, 0, 0, 0, 0, -1]","[-1, -2, -2, -2, -2, -3, -3, -3, -3, -3, -3, -3, -3, -3, -3, -1, 4, 11, 20, 29, 39, 50, 62, 77, 93, 111, 133, 155, 171, 186, 198, 207, 215, 224, 234, 243, 251, 257, 262, 267, 272, 277, 281, 285, 288, 292, 296, 300, 303, 305, 306, 306, 306, 306, 306]"
"100","100","692.730769231","692.730769231","black","no","prac","3","legacy","legacy","w.png","w.png","g.png","w.png","2","legacy","0","relative","1","undefined","NA","green","NA","undefined","1","undefined","undefined","green","2","0","3","0","26","0","NA","26","26","26","26","26","0","26","26","26","26","0","4","NA","NA","26","0","0","0","0","0","0","0","26","11/04/20 17:33:02","Default description","yes","simont_HV.osexp","C:\Users\admin\Desktop\채은\!MouseTracking_final","no","sans","no","18","no","black","no","yes","768","130","None","130","None","legacy","26","26","2","C:/Users/admin/Desktop/채은/!MouseTracking_final/subject-23.csv","legacy","1","2","1","Kafkaesque Koffka","3.2.6","0","green","space","NA","None","green","start","space","NA","NA","NA","NA","605","100227","NA","250","605","242","23277","NA","NA","NA","NA","2","legacy","1024","2","48000","-16","experiment","23","odd","legacy","red","green","blue","yellow","1","25662","NA","NA","205617","2380","NA","204255","204759","205011","204011","131066","2384","205622","206622","204759","205011","NA","NA","NA","NA","204011","NA","NA","NA","NA","NA","NA","125890","204009","[204760.0, 204770.0, 204780.0, 204790.0, 204800.0, 204810.0, 204820.0, 204830.0, 204840.0, 204850.0, 204860.0, 204870.0, 204880.0, 204890.0, 204900.0, 204910.0, 204920.0, 204930.0, 204940.0, 204950.0, 204960.0, 204970.0, 204980.0, 204990.0, 205000.0, 205010.0]","[205011.0, 205021.0, 205031.0, 205041.0, 205051.0, 205061.0, 205071.0, 205081.0, 205091.0, 205101.0, 205111.0, 205121.0, 205131.0, 205141.0, 205151.0, 205161.0, 205171.0, 205181.0, 205191.0, 205201.0, 205211.0, 205221.0, 205231.0, 205241.0, 205251.0, 205261.0, 205271.0, 205281.0, 205291.0, 205301.0, 205311.0, 205321.0, 205331.0, 205341.0, 205351.0, 205361.0, 205371.0, 205381.0, 205391.0, 205401.0, 205411.0, 205421.0, 205431.0, 205441.0, 205451.0, 205461.0, 205471.0, 205481.0, 205491.0, 205501.0, 205511.0, 205521.0, 205531.0, 205541.0, 205551.0, 205561.0, 205571.0, 205581.0, 205591.0, 205601.0, 205611.0, 205616]","example_experiment","26","18011","26","yes","768","1","[0, 0, 0, 0, 0, 0, 0, 0, 0, 0, 0, 0, 0, 0, 0, 0, 0, 0, 0, 0, 0, 0, 0, 0, 0, 0]","[0, 0, 0, 0, 0, 0, 0, 0, 0, 0, 0, 0, 0, 0, 1, 2, 7, 17, 33, 53, 76, 97, 120, 142, 159, 174, 188, 201, 212, 222, 232, 240, 249, 255, 262, 267, 273, 279, 284, 290, 294, 295, 295, 295, 295, 295, 295, 295, 295, 295, 295, 296, 297, 298, 298, 298, 298, 298, 298, 298, 298, 298]","[0, 0, 0, 0, 0, 0, 0, 0, 0, 0, 0, 0, 0, 0, 0, 0, 0, 0, 0, 0, 0, 0, 0, 0, 0, 0]","[0, 0, 0, 0, 0, 0, 0, 0, 0, 0, 0, 0, 0, 0, 0, 0, 0, 0, 0, 0, 0, 0, 0, 0, 0, 0, 0, 0, -1, -1, -2, -2, -2, -2, -2, -2, -2, -2, -2, -2, -3, -4, -4, -4, -4, -4, -4, -4, -4, -4, -4, -4, -4, -4, -4, -4, -4, -4, -4, -4, -4, -4]"
"100","100","695.222222222","695.222222222","black","no","prac","2","legacy","legacy","b.png","w.png","w.png","w.png","1","legacy","0","relative","1","undefined","NA","blue","NA","undefined","1","undefined","undefined","blue","3","0","3","0","27","0","NA","27","27","27","27","27","0","27","27","27","27","0","4","NA","NA","27","0","0","0","0","0","0","0","27","11/04/20 17:33:02","Default description","yes","simont_HV.osexp","C:\Users\admin\Desktop\채은\!MouseTracking_final","no","sans","no","18","no","black","no","yes","768","0","240","0","190","legacy","27","27","2","C:/Users/admin/Desktop/채은/!MouseTracking_final/subject-23.csv","legacy","2","1","2","Kafkaesque Koffka","3.2.6","0","blue","space","NA","None","blue","start","space","NA","NA","NA","NA","760","100227","NA","250","760","265","23277","NA","NA","NA","NA","2","legacy","1024","2","48000","-16","experiment","23","odd","legacy","red","green","blue","yellow","2","25662","NA","NA","208525","2380","NA","207008","207512","207764","206741","131066","2384","208542","209542","207512","207764","NA","NA","NA","NA","206741","NA","NA","NA","NA","NA","NA","125890","206740","[207513.0, 207523.0, 207533.0, 207543.0, 207553.0, 207563.0, 207573.0, 207583.0, 207593.0, 207603.0, 207613.0, 207623.0, 207633.0, 207643.0, 207653.0, 207663.0, 207673.0, 207683.0, 207693.0, 207703.0, 207713.0, 207723.0, 207733.0, 207743.0, 207753.0, 207763.0]","[207764.0, 207774.0, 207784.0, 207794.0, 207804.0, 207814.0, 207824.0, 207834.0, 207844.0, 207854.0, 207864.0, 207874.0, 207884.0, 207894.0, 207904.0, 207914.0, 207924.0, 207934.0, 207944.0, 207954.0, 207964.0, 207974.0, 207984.0, 207994.0, 208004.0, 208014.0, 208024.0, 208034.0, 208044.0, 208054.0, 208064.0, 208074.0, 208084.0, 208094.0, 208104.0, 208114.0, 208124.0, 208134.0, 208144.0, 208154.0, 208164.0, 208174.0, 208184.0, 208194.0, 208204.0, 208214.0, 208224.0, 208234.0, 208244.0, 208254.0, 208264.0, 208274.0, 208284.0, 208294.0, 208304.0, 208314.0, 208324.0, 208334.0, 208344.0, 208354.0, 208364.0, 208374.0, 208384.0, 208394.0, 208404.0, 208414.0, 208424.0, 208434.0, 208444.0, 208454.0, 208464.0, 208474.0, 208484.0, 208494.0, 208504.0, 208514.0, 208524.0, 208524]","example_experiment","27","18771","27","yes","768","4","[0, 0, 0, 0, 0, 0, 0, 0, 0, 0, 0, 0, 0, 0, 0, 0, 0, 0, 0, 0, 0, 0, 0, 0, 0, 0]","[0, 0, 0, 2, 2, 3, 4, 5, 6, 8, 10, 13, 15, 15, 15, 15, 15, 16, 16, 19, 23, 29, 36, 42, 46, 48, 48, 44, 37, 27, 15, 5, -3, -6, -7, -7, -6, -3, 1, 6, 9, 12, 13, 15, 18, 19, 20, 22, 24, 25, 26, 27, 27, 27, 27, 27, 27, 27, 27, 26, 24, 22, 20, 17, 16, 14, 12, 10, 9, 7, 6, 5, 4, 3, 3, 3, 3, 3]","[0, 0, 0, 0, 0, 0, 0, 0, 0, 0, 0, 0, 0, 0, 0, 0, 0, 0, 0, 0, 0, 0, 0, 0, 0, 4]","[4, 8, 12, 17, 22, 27, 36, 46, 57, 70, 85, 97, 108, 116, 121, 125, 128, 131, 135, 140, 146, 148, 149, 145, 138, 129, 115, 97, 70, 40, 5, -29, -63, -90, -121, -145, -164, -182, -201, -216, -227, -235, -241, -248, -254, -259, -264, -268, -272, -275, -277, -279, -280, -280, -281, -281, -281, -281, -282, -283, -285, -287, -289, -291, -292, -294, -296, -299, -301, -303, -305, -306, -307, -307, -307, -307, -307, -307]"
"100","100","690.964285714","690.964285714","black","no","prac","4","legacy","legacy","b.png","w.png","w.png","w.png","1","legacy","0","relative","1","undefined","NA","blue","NA","undefined","1","undefined","undefined","blue","3","0","3","0","28","0","NA","28","28","28","28","28","0","28","28","28","28","0","4","NA","NA","28","0","0","0","0","0","0","0","28","11/04/20 17:33:02","Default description","yes","simont_HV.osexp","C:\Users\admin\Desktop\채은\!MouseTracking_final","no","sans","no","18","no","black","no","yes","768","0","180","0","0","legacy","28","28","2","C:/Users/admin/Desktop/채은/!MouseTracking_final/subject-23.csv","legacy","2","2","2","Kafkaesque Koffka","3.2.6","0","blue","space","NA","None","blue","start","space","NA","NA","NA","NA","576","100227","NA","250","576","267","23277","NA","NA","NA","NA","2","legacy","1024","2","48000","-16","experiment","23","odd","legacy","red","green","blue","yellow","2","25662","NA","NA","211259","2380","NA","209926","210430","210682","209657","131066","2384","211272","212272","210430","210682","NA","NA","NA","NA","209657","NA","NA","NA","NA","NA","NA","125890","209655","[210431.0, 210441.0, 210451.0, 210461.0, 210471.0, 210481.0, 210491.0, 210501.0, 210511.0, 210521.0, 210531.0, 210541.0, 210551.0, 210561.0, 210571.0, 210581.0, 210591.0, 210601.0, 210611.0, 210621.0, 210631.0, 210641.0, 210651.0, 210661.0, 210671.0, 210681.0]","[210682.0, 210692.0, 210702.0, 210712.0, 210722.0, 210732.0, 210742.0, 210752.0, 210762.0, 210772.0, 210782.0, 210792.0, 210802.0, 210812.0, 210822.0, 210832.0, 210842.0, 210852.0, 210862.0, 210872.0, 210882.0, 210892.0, 210902.0, 210912.0, 210922.0, 210932.0, 210942.0, 210952.0, 210962.0, 210972.0, 210982.0, 210992.0, 211002.0, 211012.0, 211022.0, 211032.0, 211042.0, 211052.0, 211062.0, 211072.0, 211082.0, 211092.0, 211102.0, 211112.0, 211122.0, 211132.0, 211142.0, 211152.0, 211162.0, 211172.0, 211182.0, 211192.0, 211202.0, 211212.0, 211222.0, 211232.0, 211242.0, 211252.0, 211258]","example_experiment","28","19347","28","yes","768","4","[0, 0, 0, 0, 0, 0, 0, 0, 0, 0, 0, 0, 0, 0, 0, 0, 0, 0, 0, 0, 0, -1, -1, -2, -2, -2]","[-2, -2, -2, -2, -3, -3, -3, -4, -4, -4, -4, -4, -4, -4, -4, -4, -5, -8, -12, -15, -17, -17, -16, -10, -3, 5, 13, 19, 23, 24, 24, 24, 23, 23, 22, 22, 22, 21, 20, 20, 19, 18, 16, 16, 15, 15, 15, 15, 14, 13, 13, 13, 12, 11, 11, 11, 11, 11, 11]","[0, 0, 0, 0, 0, 0, 0, 0, 0, 0, 0, 0, 0, 0, 0, 0, 0, 0, 0, 1, 1, 3, 4, 7, 10, 13]","[13, 17, 21, 26, 34, 45, 57, 67, 75, 84, 90, 94, 96, 96, 96, 94, 87, 77, 62, 49, 30, 10, -18, -50, -77, -106, -137, -165, -191, -210, -228, -240, -251, -257, -261, -265, -269, -275, -280, -284, -289, -293, -295, -296, -296, -297, -297, -297, -297, -298, -298, -299, -301, -302, -304, -304, -304, -304, -304]"
"100","100","690.103448276","690.103448276","black","no","prac","3","legacy","legacy","w.png","w.png","g.png","w.png","2","legacy","0","relative","1","undefined","NA","green","NA","undefined","1","undefined","undefined","green","2","0","3","0","29","0","NA","29","29","29","29","29","0","29","29","29","29","0","4","NA","NA","29","0","0","0","0","0","0","0","29","11/04/20 17:33:02","Default description","yes","simont_HV.osexp","C:\Users\admin\Desktop\채은\!MouseTracking_final","no","sans","no","18","no","black","no","yes","768","180","None","180","0","legacy","29","29","2","C:/Users/admin/Desktop/채은/!MouseTracking_final/subject-23.csv","legacy","1","2","2","Kafkaesque Koffka","3.2.6","0","green","space","NA","None","green","start","space","NA","NA","NA","NA","666","100227","NA","250","666","471","23277","NA","NA","NA","NA","2","legacy","1024","2","48000","-16","experiment","23","odd","legacy","red","green","blue","yellow","1","25662","NA","NA","214284","2380","NA","212861","213365","213617","212388","131066","2384","214302","215302","213365","213617","NA","NA","NA","NA","212388","NA","NA","NA","NA","NA","NA","125890","212387","[213366.0, 213376.0, 213386.0, 213396.0, 213406.0, 213416.0, 213426.0, 213436.0, 213446.0, 213456.0, 213466.0, 213476.0, 213486.0, 213496.0, 213506.0, 213516.0, 213526.0, 213536.0, 213546.0, 213556.0, 213566.0, 213576.0, 213586.0, 213596.0, 213606.0, 213616.0]","[213617.0, 213627.0, 213637.0, 213647.0, 213657.0, 213667.0, 213677.0, 213687.0, 213697.0, 213707.0, 213717.0, 213727.0, 213737.0, 213747.0, 213757.0, 213767.0, 213777.0, 213787.0, 213797.0, 213807.0, 213817.0, 213827.0, 213837.0, 213847.0, 213857.0, 213867.0, 213877.0, 213887.0, 213897.0, 213907.0, 213917.0, 213927.0, 213937.0, 213947.0, 213957.0, 213967.0, 213977.0, 213987.0, 213997.0, 214007.0, 214017.0, 214027.0, 214037.0, 214047.0, 214057.0, 214067.0, 214077.0, 214087.0, 214097.0, 214107.0, 214117.0, 214127.0, 214137.0, 214147.0, 214157.0, 214167.0, 214177.0, 214187.0, 214197.0, 214207.0, 214217.0, 214227.0, 214237.0, 214247.0, 214257.0, 214267.0, 214277.0, 214283]","example_experiment","29","20013","29","yes","768","3","[0, 0, 0, 0, 0, 0, 0, 0, 0, 0, 0, 0, 0, 0, 0, 0, 0, 0, 0, 0, 0, 0, 0, 0, 0, 0]","[0, 0, 0, 0, 0, 0, 0, 0, 0, 0, 0, 0, 0, 0, 0, 0, 0, 0, 0, 2, 6, 14, 25, 40, 60, 82, 111, 134, 156, 173, 185, 194, 200, 205, 209, 214, 220, 226, 233, 241, 246, 251, 253, 253, 254, 256, 259, 262, 266, 269, 270, 271, 272, 273, 276, 279, 282, 286, 290, 291, 291, 291, 291, 292, 292, 293, 293, 293]","[0, 0, 0, 0, 0, 0, 0, 0, 0, 0, 0, 0, 0, 0, 0, 0, 0, 0, 0, 0, 0, 0, 0, 0, 0, 0]","[0, 0, 0, 0, 0, 0, 0, 0, 0, 0, 0, 0, 0, 0, 0, 0, 0, 0, 0, 0, 0, 0, 0, 0, -1, -1, -1, -1, -3, -5, -7, -9, -10, -11, -12, -13, -14, -16, -16, -17, -19, -20, -21, -21, -22, -22, -23, -23, -23, -23, -23, -23, -23, -23, -21, -18, -16, -14, -13, -11, -11, -11, -11, -11, -10, -10, -10, -10]"
"100","100","686.433333333","686.433333333","black","no","block1","0","legacy","legacy","w.png","r.png","w.png","w.png","1","legacy","0","relative","1","undefined","NA","red","NA","undefined","1","undefined","undefined","red","1","0","3","0","30","0","NA","30","30","30","30","30","0","30","30","30","30","0","4","NA","NA","30","0","0","0","0","0","0","0","30","11/04/20 17:33:02","Default description","yes","simont_HV.osexp","C:\Users\admin\Desktop\채은\!MouseTracking_final","no","sans","no","18","no","black","no","yes","768","0","190","0","0","legacy","0","29","1","C:/Users/admin/Desktop/채은/!MouseTracking_final/subject-23.csv","legacy","1","0","0","Kafkaesque Koffka","3.2.6","0","red","space","NA","None","red","start","space","space","NA","NA","NA","580","100227","NA","250","580","1321","23277","51674","NA","NA","NA","2","legacy","1024","2","48000","-16","experiment","23","odd","legacy","red","green","blue","yellow","1","25662","NA","NA","269744","2380","NA","268407","268911","269163","267084","131066","2384","269772","270772","268911","269163","215344","NA","NA","NA","267084","267019","NA","NA","NA","NA","NA","125890","267083","[268912.0, 268922.0, 268932.0, 268942.0, 268952.0, 268962.0, 268972.0, 268982.0, 268992.0, 269002.0, 269012.0, 269022.0, 269032.0, 269042.0, 269052.0, 269062.0, 269072.0, 269082.0, 269092.0, 269102.0, 269112.0, 269122.0, 269132.0, 269142.0, 269152.0, 269162.0]","[269163.0, 269173.0, 269183.0, 269193.0, 269203.0, 269213.0, 269223.0, 269233.0, 269243.0, 269253.0, 269263.0, 269273.0, 269283.0, 269293.0, 269303.0, 269313.0, 269323.0, 269333.0, 269343.0, 269353.0, 269363.0, 269373.0, 269383.0, 269393.0, 269403.0, 269413.0, 269423.0, 269433.0, 269443.0, 269453.0, 269463.0, 269473.0, 269483.0, 269493.0, 269503.0, 269513.0, 269523.0, 269533.0, 269543.0, 269553.0, 269563.0, 269573.0, 269583.0, 269593.0, 269603.0, 269613.0, 269623.0, 269633.0, 269643.0, 269653.0, 269663.0, 269673.0, 269683.0, 269693.0, 269703.0, 269713.0, 269723.0, 269733.0, 269743.0, 269743]","example_experiment","30","20593","30","yes","768","0","[0, 0, 0, 0, 0, 0, 0, 0, 0, 0, 0, 0, 0, 0, 0, 0, 0, 0, 0, 0, -2, -3, -6, -8, -12, -17]","[-17, -23, -31, -40, -52, -66, -79, -93, -104, -115, -124, -133, -141, -148, -153, -158, -161, -164, -165, -167, -168, -170, -172, -174, -178, -183, -189, -197, -206, -215, -223, -230, -238, -243, -249, -253, -258, -262, -266, -268, -271, -273, -275, -277, -278, -279, -279, -279, -279, -279, -280, -280, -281, -282, -283, -285, -287, -289, -291, -291]","[0, 0, 0, 0, 0, 0, 0, 0, 0, 0, 0, 0, 0, 0, 0, 0, 0, 0, 0, 0, 0, 0, 0, 1, 2, 3]","[3, 4, 5, 5, 5, 6, 6, 6, 5, 4, 2, 0, -1, -3, -4, -6, -7, -7, -8, -8, -8, -9, -9, -9, -9, -9, -8, -6, -6, -5, -4, -3, -3, -3, -3, -3, -3, -4, -4, -5, -5, -6, -6, -6, -6, -7, -7, -7, -7, -7, -7, -7, -7, -7, -7, -7, -7, -6, -6, -6]"
"100","100","683.096774194","683.096774194","black","no","block1","0","legacy","legacy","w.png","w.png","w.png","b.png","1","legacy","0","relative","1","undefined","NA","blue","NA","undefined","1","undefined","undefined","blue","3","0","3","0","31","0","NA","31","31","31","31","31","0","31","31","31","31","0","4","NA","NA","31","0","0","0","0","0","0","0","31","11/04/20 17:33:02","Default description","yes","simont_HV.osexp","C:\Users\admin\Desktop\채은\!MouseTracking_final","no","sans","no","18","no","black","no","yes","768","0","170","0","None","legacy","1","29","1","C:/Users/admin/Desktop/채은/!MouseTracking_final/subject-23.csv","legacy","1","1","0","Kafkaesque Koffka","3.2.6","0","blue","space","NA","None","blue","start","space","space","NA","NA","NA","583","100227","NA","250","583","483","23277","51674","NA","NA","NA","2","legacy","1024","2","48000","-16","experiment","23","odd","legacy","red","green","blue","yellow","2","25662","NA","NA","272712","2380","NA","271372","271876","272128","270886","131066","2384","272732","273732","271876","272128","215344","NA","NA","NA","270886","267019","NA","NA","NA","NA","NA","125890","270885","[271877.0, 271887.0, 271897.0, 271907.0, 271917.0, 271927.0, 271937.0, 271947.0, 271957.0, 271967.0, 271977.0, 271987.0, 271997.0, 272007.0, 272017.0, 272027.0, 272037.0, 272047.0, 272057.0, 272067.0, 272077.0, 272087.0, 272097.0, 272107.0, 272117.0, 272127.0]","[272128.0, 272138.0, 272148.0, 272158.0, 272168.0, 272178.0, 272188.0, 272198.0, 272208.0, 272218.0, 272228.0, 272238.0, 272248.0, 272258.0, 272268.0, 272278.0, 272288.0, 272298.0, 272308.0, 272318.0, 272328.0, 272338.0, 272348.0, 272358.0, 272368.0, 272378.0, 272388.0, 272398.0, 272408.0, 272418.0, 272428.0, 272438.0, 272448.0, 272458.0, 272468.0, 272478.0, 272488.0, 272498.0, 272508.0, 272518.0, 272528.0, 272538.0, 272548.0, 272558.0, 272568.0, 272578.0, 272588.0, 272598.0, 272608.0, 272618.0, 272628.0, 272638.0, 272648.0, 272658.0, 272668.0, 272678.0, 272688.0, 272698.0, 272708.0, 272711]","example_experiment","31","21176","31","yes","768","0","[0, 0, 0, 0, 0, 0, 0, 0, 0, 0, 0, 0, 0, 0, 0, 0, 0, 0, 1, 2, 2, 3, 3, 3, 3, 3]","[3, 4, 5, 5, 5, 6, 6, 6, 6, 7, 8, 9, 10, 12, 13, 16, 18, 20, 21, 21, 21, 21, 21, 21, 21, 21, 21, 20, 19, 18, 17, 17, 17, 17, 17, 17, 17, 17, 17, 17, 17, 18, 18, 19, 19, 20, 21, 21, 21, 21, 21, 20, 19, 19, 18, 18, 18, 18, 18, 18]","[0, 0, 0, 0, 0, 0, 0, 0, 0, 0, 0, 0, 0, 0, 0, 0, 0, 0, 0, -1, -1, -2, -3, -5, -7, -9]","[-9, -12, -13, -15, -17, -17, -17, -18, -19, -23, -28, -34, -40, -47, -55, -69, -86, -103, -118, -129, -141, -151, -160, -168, -175, -182, -188, -194, -201, -205, -210, -213, -217, -220, -224, -229, -234, -240, -247, -253, -259, -263, -266, -270, -273, -277, -281, -284, -287, -290, -293, -295, -298, -299, -300, -301, -301, -302, -302, -302]"
"100","100","676.40625","676.40625","black","no","block1","1","legacy","legacy","w.png","r.png","w.png","w.png","1","legacy","0","relative","1","undefined","NA","red","NA","undefined","1","undefined","undefined","red","1","0","3","0","32","0","NA","32","32","32","32","32","0","32","32","32","32","0","4","NA","NA","32","0","0","0","0","0","0","0","32","11/04/20 17:33:02","Default description","yes","simont_HV.osexp","C:\Users\admin\Desktop\채은\!MouseTracking_final","no","sans","no","18","no","black","no","yes","768","0","190","0","None","legacy","2","29","1","C:/Users/admin/Desktop/채은/!MouseTracking_final/subject-23.csv","legacy","1","1","1","Kafkaesque Koffka","3.2.6","0","red","space","NA","None","red","start","space","space","NA","NA","NA","469","100227","NA","250","469","234","23277","51674","NA","NA","NA","2","legacy","1024","2","48000","-16","experiment","23","odd","legacy","red","green","blue","yellow","1","25662","NA","NA","275313","2380","NA","274086","274591","274843","273851","131066","2384","275332","276332","274591","274843","215344","NA","NA","NA","273851","267019","NA","NA","NA","NA","NA","125890","273850","[274592.0, 274602.0, 274612.0, 274622.0, 274632.0, 274642.0, 274652.0, 274662.0, 274672.0, 274682.0, 274692.0, 274702.0, 274712.0, 274722.0, 274732.0, 274742.0, 274752.0, 274762.0, 274772.0, 274782.0, 274792.0, 274802.0, 274812.0, 274822.0, 274832.0, 274842.0]","[274843.0, 274853.0, 274863.0, 274873.0, 274883.0, 274893.0, 274903.0, 274913.0, 274923.0, 274933.0, 274943.0, 274953.0, 274963.0, 274973.0, 274983.0, 274993.0, 275003.0, 275013.0, 275023.0, 275033.0, 275043.0, 275053.0, 275063.0, 275073.0, 275083.0, 275093.0, 275103.0, 275113.0, 275123.0, 275133.0, 275143.0, 275153.0, 275163.0, 275173.0, 275183.0, 275193.0, 275203.0, 275213.0, 275223.0, 275233.0, 275243.0, 275253.0, 275263.0, 275273.0, 275283.0, 275293.0, 275303.0, 275312]","example_experiment","32","21645","32","yes","768","1","[0, 0, 0, 0, 0, 0, 0, 0, 0, 0, 0, 0, 0, 0, 0, 0, 0, 0, 0, 0, -1, -2, -4, -6, -9, -13]","[-13, -20, -29, -43, -59, -79, -101, -127, -152, -173, -190, -203, -212, -218, -221, -223, -223, -223, -223, -223, -223, -223, -223, -223, -224, -225, -227, -230, -233, -236, -241, -247, -255, -262, -269, -278, -284, -290, -296, -301, -305, -309, -312, -315, -316, -318, -318, -318]","[0, 0, 0, 0, 0, 0, 0, 0, 0, 0, 0, 0, 0, 0, 0, 0, 0, 0, 0, 0, 0, 0, 0, 0, 0, 0]","[0, 0, 0, -1, -2, -4, -5, -7, -9, -9, -9, -9, -9, -9, -9, -9, -9, -9, -9, -9, -9, -9, -9, -9, -10, -10, -11, -11, -11, -11, -11, -10, -9, -9, -9, -9, -9, -9, -10, -10, -10, -10, -10, -10, -10, -10, -10, -10]"
